"success","timeout","failed_images","failed_audio","failed_video","trial_type","trial_index","time_elapsed","internal_node_id","run_id","condition","recorded_at","source_code_version","ip","user_agent","device","browser","browser_version","platform","platform_version","rt","response","question_order","view_history","stimulus","trial_name","slider_start"
"true","false","[]","[]","[]","preload","0","205","0.0-0.0","18","1","2022-04-01 23:15:51","c79472ad15d8b617a4d57d5bf56a810f","116.250.248.47","Mozilla/5.0 (Windows NT 10.0; Win64; x64) AppleWebKit/537.36 (KHTML, like Gecko) Chrome/99.0.4844.74 Safari/537.36 Edg/99.0.1150.55","WebKit","Edge","99.0.1150.55","Windows","10.0","","","","","","",""
"","","","","","survey-multi-choice","1","2746","0.0-1.0-0.0","18","1","2022-04-01 23:15:51","c79472ad15d8b617a4d57d5bf56a810f","116.250.248.47","Mozilla/5.0 (Windows NT 10.0; Win64; x64) AppleWebKit/537.36 (KHTML, like Gecko) Chrome/99.0.4844.74 Safari/537.36 Edg/99.0.1150.55","WebKit","Edge","99.0.1150.55","Windows","10.0","2538.5","{""Gender"":""Female""}","[0]","","","",""
"","","","","","survey-text","2","9209","0.0-1.0-1.0","18","1","2022-04-01 23:15:51","c79472ad15d8b617a4d57d5bf56a810f","116.250.248.47","Mozilla/5.0 (Windows NT 10.0; Win64; x64) AppleWebKit/537.36 (KHTML, like Gecko) Chrome/99.0.4844.74 Safari/537.36 Edg/99.0.1150.55","WebKit","Edge","99.0.1150.55","Windows","10.0","6460.10000000149","{""Age"":""23""}","","","","",""
"","","","","","instructions","3","210265","0.0-1.0-2.0","18","1","2022-04-01 23:15:51","c79472ad15d8b617a4d57d5bf56a810f","116.250.248.47","Mozilla/5.0 (Windows NT 10.0; Win64; x64) AppleWebKit/537.36 (KHTML, like Gecko) Chrome/99.0.4844.74 Safari/537.36 Edg/99.0.1150.55","WebKit","Edge","99.0.1150.55","Windows","10.0","201055","","","[{""page_index"":0,""viewing_time"":12293.90000000596},{""page_index"":1,""viewing_time"":22496.39999999851},{""page_index"":2,""viewing_time"":23336.19999999553},{""page_index"":3,""viewing_time"":9137},{""page_index"":4,""viewing_time"":33038.30000000447},{""page_index"":5,""viewing_time"":14407.69999999553},{""page_index"":6,""viewing_time"":9017.90000000596},{""page_index"":7,""viewing_time"":19078.29999999702},{""page_index"":8,""viewing_time"":1615.7000000029802},{""page_index"":7,""viewing_time"":2504.5999999940395},{""page_index"":8,""viewing_time"":3385.3000000044703},{""page_index"":9,""viewing_time"":5782.60000000149},{""page_index"":10,""viewing_time"":13768.89999999851},{""page_index"":9,""viewing_time"":5255.10000000149},{""page_index"":10,""viewing_time"":1584.2999999970198},{""page_index"":11,""viewing_time"":14383.20000000298},{""page_index"":12,""viewing_time"":7464.5},{""page_index"":13,""viewing_time"":2504.5}]","","",""
"","","","","","html-keyboard-response","4","210668","0.0-2.0-0.0-0.0-0.0","18","1","2022-04-01 23:15:51","c79472ad15d8b617a4d57d5bf56a810f","116.250.248.47","Mozilla/5.0 (Windows NT 10.0; Win64; x64) AppleWebKit/537.36 (KHTML, like Gecko) Chrome/99.0.4844.74 Safari/537.36 Edg/99.0.1150.55","WebKit","Edge","99.0.1150.55","Windows","10.0","null","null","","","<p style=""font-size:64px;"">+</p>","P_2_4_O",""
"","","","","","html-keyboard-response","5","211921","0.0-2.0-0.0-0.0-1.0","18","1","2022-04-01 23:15:51","c79472ad15d8b617a4d57d5bf56a810f","116.250.248.47","Mozilla/5.0 (Windows NT 10.0; Win64; x64) AppleWebKit/537.36 (KHTML, like Gecko) Chrome/99.0.4844.74 Safari/537.36 Edg/99.0.1150.55","WebKit","Edge","99.0.1150.55","Windows","10.0","null","null","","","
                        <div class=orange>
                        <div class=""centered"">
                            <p style=""font-size: 24px""><b>52%</b></p>
                        </div>","P_2_4_O",""
"","","","","","html-keyboard-response","6","212323","0.0-2.0-0.0-0.0-0.1","18","1","2022-04-01 23:15:51","c79472ad15d8b617a4d57d5bf56a810f","116.250.248.47","Mozilla/5.0 (Windows NT 10.0; Win64; x64) AppleWebKit/537.36 (KHTML, like Gecko) Chrome/99.0.4844.74 Safari/537.36 Edg/99.0.1150.55","WebKit","Edge","99.0.1150.55","Windows","10.0","null","null","","","<p style=""font-size:64px;"">+</p>","P_2_4_O",""
"","","","","","html-keyboard-response","7","213575","0.0-2.0-0.0-0.0-1.1","18","1","2022-04-01 23:15:51","c79472ad15d8b617a4d57d5bf56a810f","116.250.248.47","Mozilla/5.0 (Windows NT 10.0; Win64; x64) AppleWebKit/537.36 (KHTML, like Gecko) Chrome/99.0.4844.74 Safari/537.36 Edg/99.0.1150.55","WebKit","Edge","99.0.1150.55","Windows","10.0","null","null","","","
                        <div class=pink>
                        <div class=""centered"">
                            <p style=""font-size: 24px""><b>54%</b></p>
                        </div>","P_2_4_O",""
"","","","","","html-keyboard-response","8","213977","0.0-2.0-0.0-0.0-0.2","18","1","2022-04-01 23:15:51","c79472ad15d8b617a4d57d5bf56a810f","116.250.248.47","Mozilla/5.0 (Windows NT 10.0; Win64; x64) AppleWebKit/537.36 (KHTML, like Gecko) Chrome/99.0.4844.74 Safari/537.36 Edg/99.0.1150.55","WebKit","Edge","99.0.1150.55","Windows","10.0","null","null","","","<p style=""font-size:64px;"">+</p>","P_2_4_O",""
"","","","","","html-keyboard-response","9","215230","0.0-2.0-0.0-0.0-1.2","18","1","2022-04-01 23:15:51","c79472ad15d8b617a4d57d5bf56a810f","116.250.248.47","Mozilla/5.0 (Windows NT 10.0; Win64; x64) AppleWebKit/537.36 (KHTML, like Gecko) Chrome/99.0.4844.74 Safari/537.36 Edg/99.0.1150.55","WebKit","Edge","99.0.1150.55","Windows","10.0","null","null","","","
                        <div class=orange>
                        <div class=""centered"">
                            <p style=""font-size: 24px""><b>52%</b></p>
                        </div>","P_2_4_O",""
"","","","","","html-keyboard-response","10","215632","0.0-2.0-0.0-0.0-0.3","18","1","2022-04-01 23:15:51","c79472ad15d8b617a4d57d5bf56a810f","116.250.248.47","Mozilla/5.0 (Windows NT 10.0; Win64; x64) AppleWebKit/537.36 (KHTML, like Gecko) Chrome/99.0.4844.74 Safari/537.36 Edg/99.0.1150.55","WebKit","Edge","99.0.1150.55","Windows","10.0","null","null","","","<p style=""font-size:64px;"">+</p>","P_2_4_O",""
"","","","","","html-keyboard-response","11","216884","0.0-2.0-0.0-0.0-1.3","18","1","2022-04-01 23:15:51","c79472ad15d8b617a4d57d5bf56a810f","116.250.248.47","Mozilla/5.0 (Windows NT 10.0; Win64; x64) AppleWebKit/537.36 (KHTML, like Gecko) Chrome/99.0.4844.74 Safari/537.36 Edg/99.0.1150.55","WebKit","Edge","99.0.1150.55","Windows","10.0","null","null","","","
                        <div class=orange>
                        <div class=""centered"">
                            <p style=""font-size: 24px""><b>55%</b></p>
                        </div>","P_2_4_O",""
"","","","","","html-keyboard-response","12","217286","0.0-2.0-0.0-0.0-0.4","18","1","2022-04-01 23:15:51","c79472ad15d8b617a4d57d5bf56a810f","116.250.248.47","Mozilla/5.0 (Windows NT 10.0; Win64; x64) AppleWebKit/537.36 (KHTML, like Gecko) Chrome/99.0.4844.74 Safari/537.36 Edg/99.0.1150.55","WebKit","Edge","99.0.1150.55","Windows","10.0","null","null","","","<p style=""font-size:64px;"">+</p>","P_2_4_O",""
"","","","","","html-keyboard-response","13","218538","0.0-2.0-0.0-0.0-1.4","18","1","2022-04-01 23:15:51","c79472ad15d8b617a4d57d5bf56a810f","116.250.248.47","Mozilla/5.0 (Windows NT 10.0; Win64; x64) AppleWebKit/537.36 (KHTML, like Gecko) Chrome/99.0.4844.74 Safari/537.36 Edg/99.0.1150.55","WebKit","Edge","99.0.1150.55","Windows","10.0","null","null","","","
                        <div class=pink>
                        <div class=""centered"">
                            <p style=""font-size: 24px""><b>52%</b></p>
                        </div>","P_2_4_O",""
"","","","","","html-keyboard-response","14","218940","0.0-2.0-0.0-0.0-0.5","18","1","2022-04-01 23:15:51","c79472ad15d8b617a4d57d5bf56a810f","116.250.248.47","Mozilla/5.0 (Windows NT 10.0; Win64; x64) AppleWebKit/537.36 (KHTML, like Gecko) Chrome/99.0.4844.74 Safari/537.36 Edg/99.0.1150.55","WebKit","Edge","99.0.1150.55","Windows","10.0","null","null","","","<p style=""font-size:64px;"">+</p>","P_2_4_O",""
"","","","","","html-keyboard-response","15","220192","0.0-2.0-0.0-0.0-1.5","18","1","2022-04-01 23:15:51","c79472ad15d8b617a4d57d5bf56a810f","116.250.248.47","Mozilla/5.0 (Windows NT 10.0; Win64; x64) AppleWebKit/537.36 (KHTML, like Gecko) Chrome/99.0.4844.74 Safari/537.36 Edg/99.0.1150.55","WebKit","Edge","99.0.1150.55","Windows","10.0","null","null","","","
                        <div class=pink>
                        <div class=""centered"">
                            <p style=""font-size: 24px""><b>55%</b></p>
                        </div>","P_2_4_O",""
"","","","","","html-keyboard-response","16","220594","0.0-2.0-0.0-1.0-0.0","18","1","2022-04-01 23:15:51","c79472ad15d8b617a4d57d5bf56a810f","116.250.248.47","Mozilla/5.0 (Windows NT 10.0; Win64; x64) AppleWebKit/537.36 (KHTML, like Gecko) Chrome/99.0.4844.74 Safari/537.36 Edg/99.0.1150.55","WebKit","Edge","99.0.1150.55","Windows","10.0","null","null","","","<p style=""font-size:64px;"">+</p>","P_2_4_O",""
"","","","","","html-keyboard-response","17","221847","0.0-2.0-0.0-1.0-1.0","18","1","2022-04-01 23:15:51","c79472ad15d8b617a4d57d5bf56a810f","116.250.248.47","Mozilla/5.0 (Windows NT 10.0; Win64; x64) AppleWebKit/537.36 (KHTML, like Gecko) Chrome/99.0.4844.74 Safari/537.36 Edg/99.0.1150.55","WebKit","Edge","99.0.1150.55","Windows","10.0","null","null","","","
                        <div class=""orange"">
                        <div class=""centered"">
                            <p style=""font-size: 24px""><b>50%</b></p>
                        </div>","P_2_4_O",""
"","","","","","html-slider-response","18","226792","0.0-2.0-0.0-2.0","18","1","2022-04-01 23:15:51","c79472ad15d8b617a4d57d5bf56a810f","116.250.248.47","Mozilla/5.0 (Windows NT 10.0; Win64; x64) AppleWebKit/537.36 (KHTML, like Gecko) Chrome/99.0.4844.74 Safari/537.36 Edg/99.0.1150.55","WebKit","Edge","99.0.1150.55","Windows","10.0","4942.60000000149","0","","","<div style=""width: 500px; height: 100px;""><p>Place your bid for more information.</p></div>","infoBid","6"
"","","","","","html-keyboard-response","19","227194","0.0-2.0-0.0-3.0-0.0","18","1","2022-04-01 23:15:51","c79472ad15d8b617a4d57d5bf56a810f","116.250.248.47","Mozilla/5.0 (Windows NT 10.0; Win64; x64) AppleWebKit/537.36 (KHTML, like Gecko) Chrome/99.0.4844.74 Safari/537.36 Edg/99.0.1150.55","WebKit","Edge","99.0.1150.55","Windows","10.0","null","null","","","<p style=""font-size:64px;"">+</p>","P_2_4_O",""
"","","","","","html-keyboard-response","20","228448","0.0-2.0-0.0-3.0-1.0","18","1","2022-04-01 23:15:51","c79472ad15d8b617a4d57d5bf56a810f","116.250.248.47","Mozilla/5.0 (Windows NT 10.0; Win64; x64) AppleWebKit/537.36 (KHTML, like Gecko) Chrome/99.0.4844.74 Safari/537.36 Edg/99.0.1150.55","WebKit","Edge","99.0.1150.55","Windows","10.0","null","null","","","<div class=""grey"">
                <div class=""centered"">
                    <p style=""font-size: 24px""><b>???</b></p>
                </div>","P_2_4_O",""
"","","","","","html-keyboard-response","21","237728","0.0-2.0-0.0-4.0-0.0","18","1","2022-04-01 23:15:51","c79472ad15d8b617a4d57d5bf56a810f","116.250.248.47","Mozilla/5.0 (Windows NT 10.0; Win64; x64) AppleWebKit/537.36 (KHTML, like Gecko) Chrome/99.0.4844.74 Safari/537.36 Edg/99.0.1150.55","WebKit","Edge","99.0.1150.55","Windows","10.0","9279.69999999553","j","","","
                      <div class=""row"">

                          <div class=""column"">
                              <div class=""orange""></div>
                              <div class=""leftChoiceText"">
                                  <p style=""font-size: 32px""><b>F</b></p>
                              </div>
                          </div>

                          <div class=""column"">
                              <div class=""pink""></div>
                              <div class=""rightChoiceText"">
                                  <p style=""font-size: 32px""><b>J</b></p>
                              </div>
                          </div>

                      </div>

                      <div class=""centeredTop"">
                          Which colour do you<br>
                          predict will win?
                      </div>","P_2_4_O",""
"","","","","","html-keyboard-response","22","239231","0.0-2.0-0.0-4.0-1.0","18","1","2022-04-01 23:15:51","c79472ad15d8b617a4d57d5bf56a810f","116.250.248.47","Mozilla/5.0 (Windows NT 10.0; Win64; x64) AppleWebKit/537.36 (KHTML, like Gecko) Chrome/99.0.4844.74 Safari/537.36 Edg/99.0.1150.55","WebKit","Edge","99.0.1150.55","Windows","10.0","null","null","","","<p style=""font-size:64px;"">+</p>","P_2_4_O",""
"","","","","","html-keyboard-response","23","239633","0.0-2.0-1.0-0.0-0.0","18","1","2022-04-01 23:15:51","c79472ad15d8b617a4d57d5bf56a810f","116.250.248.47","Mozilla/5.0 (Windows NT 10.0; Win64; x64) AppleWebKit/537.36 (KHTML, like Gecko) Chrome/99.0.4844.74 Safari/537.36 Edg/99.0.1150.55","WebKit","Edge","99.0.1150.55","Windows","10.0","null","null","","","<p style=""font-size:64px;"">+</p>","P_4_2_O",""
"","","","","","html-keyboard-response","24","240884","0.0-2.0-1.0-0.0-1.0","18","1","2022-04-01 23:15:51","c79472ad15d8b617a4d57d5bf56a810f","116.250.248.47","Mozilla/5.0 (Windows NT 10.0; Win64; x64) AppleWebKit/537.36 (KHTML, like Gecko) Chrome/99.0.4844.74 Safari/537.36 Edg/99.0.1150.55","WebKit","Edge","99.0.1150.55","Windows","10.0","null","null","","","
                        <div class=pink>
                        <div class=""centered"">
                            <p style=""font-size: 24px""><b>54%</b></p>
                        </div>","P_4_2_O",""
"","","","","","html-keyboard-response","25","241286","0.0-2.0-1.0-0.0-0.1","18","1","2022-04-01 23:15:51","c79472ad15d8b617a4d57d5bf56a810f","116.250.248.47","Mozilla/5.0 (Windows NT 10.0; Win64; x64) AppleWebKit/537.36 (KHTML, like Gecko) Chrome/99.0.4844.74 Safari/537.36 Edg/99.0.1150.55","WebKit","Edge","99.0.1150.55","Windows","10.0","null","null","","","<p style=""font-size:64px;"">+</p>","P_4_2_O",""
"","","","","","html-keyboard-response","26","242538","0.0-2.0-1.0-0.0-1.1","18","1","2022-04-01 23:15:51","c79472ad15d8b617a4d57d5bf56a810f","116.250.248.47","Mozilla/5.0 (Windows NT 10.0; Win64; x64) AppleWebKit/537.36 (KHTML, like Gecko) Chrome/99.0.4844.74 Safari/537.36 Edg/99.0.1150.55","WebKit","Edge","99.0.1150.55","Windows","10.0","null","null","","","
                        <div class=orange>
                        <div class=""centered"">
                            <p style=""font-size: 24px""><b>52%</b></p>
                        </div>","P_4_2_O",""
"","","","","","html-keyboard-response","27","242940","0.0-2.0-1.0-0.0-0.2","18","1","2022-04-01 23:15:51","c79472ad15d8b617a4d57d5bf56a810f","116.250.248.47","Mozilla/5.0 (Windows NT 10.0; Win64; x64) AppleWebKit/537.36 (KHTML, like Gecko) Chrome/99.0.4844.74 Safari/537.36 Edg/99.0.1150.55","WebKit","Edge","99.0.1150.55","Windows","10.0","null","null","","","<p style=""font-size:64px;"">+</p>","P_4_2_O",""
"","","","","","html-keyboard-response","28","244191","0.0-2.0-1.0-0.0-1.2","18","1","2022-04-01 23:15:51","c79472ad15d8b617a4d57d5bf56a810f","116.250.248.47","Mozilla/5.0 (Windows NT 10.0; Win64; x64) AppleWebKit/537.36 (KHTML, like Gecko) Chrome/99.0.4844.74 Safari/537.36 Edg/99.0.1150.55","WebKit","Edge","99.0.1150.55","Windows","10.0","null","null","","","
                        <div class=pink>
                        <div class=""centered"">
                            <p style=""font-size: 24px""><b>51%</b></p>
                        </div>","P_4_2_O",""
"","","","","","html-keyboard-response","29","244594","0.0-2.0-1.0-0.0-0.3","18","1","2022-04-01 23:15:51","c79472ad15d8b617a4d57d5bf56a810f","116.250.248.47","Mozilla/5.0 (Windows NT 10.0; Win64; x64) AppleWebKit/537.36 (KHTML, like Gecko) Chrome/99.0.4844.74 Safari/537.36 Edg/99.0.1150.55","WebKit","Edge","99.0.1150.55","Windows","10.0","null","null","","","<p style=""font-size:64px;"">+</p>","P_4_2_O",""
"","","","","","html-keyboard-response","30","245847","0.0-2.0-1.0-0.0-1.3","18","1","2022-04-01 23:15:51","c79472ad15d8b617a4d57d5bf56a810f","116.250.248.47","Mozilla/5.0 (Windows NT 10.0; Win64; x64) AppleWebKit/537.36 (KHTML, like Gecko) Chrome/99.0.4844.74 Safari/537.36 Edg/99.0.1150.55","WebKit","Edge","99.0.1150.55","Windows","10.0","null","null","","","
                        <div class=orange>
                        <div class=""centered"">
                            <p style=""font-size: 24px""><b>52%</b></p>
                        </div>","P_4_2_O",""
"","","","","","html-keyboard-response","31","246250","0.0-2.0-1.0-0.0-0.4","18","1","2022-04-01 23:15:51","c79472ad15d8b617a4d57d5bf56a810f","116.250.248.47","Mozilla/5.0 (Windows NT 10.0; Win64; x64) AppleWebKit/537.36 (KHTML, like Gecko) Chrome/99.0.4844.74 Safari/537.36 Edg/99.0.1150.55","WebKit","Edge","99.0.1150.55","Windows","10.0","null","null","","","<p style=""font-size:64px;"">+</p>","P_4_2_O",""
"","","","","","html-keyboard-response","32","247501","0.0-2.0-1.0-0.0-1.4","18","1","2022-04-01 23:15:51","c79472ad15d8b617a4d57d5bf56a810f","116.250.248.47","Mozilla/5.0 (Windows NT 10.0; Win64; x64) AppleWebKit/537.36 (KHTML, like Gecko) Chrome/99.0.4844.74 Safari/537.36 Edg/99.0.1150.55","WebKit","Edge","99.0.1150.55","Windows","10.0","null","null","","","
                        <div class=pink>
                        <div class=""centered"">
                            <p style=""font-size: 24px""><b>54%</b></p>
                        </div>","P_4_2_O",""
"","","","","","html-keyboard-response","33","247903","0.0-2.0-1.0-0.0-0.5","18","1","2022-04-01 23:15:51","c79472ad15d8b617a4d57d5bf56a810f","116.250.248.47","Mozilla/5.0 (Windows NT 10.0; Win64; x64) AppleWebKit/537.36 (KHTML, like Gecko) Chrome/99.0.4844.74 Safari/537.36 Edg/99.0.1150.55","WebKit","Edge","99.0.1150.55","Windows","10.0","null","null","","","<p style=""font-size:64px;"">+</p>","P_4_2_O",""
"","","","","","html-keyboard-response","34","249157","0.0-2.0-1.0-0.0-1.5","18","1","2022-04-01 23:15:51","c79472ad15d8b617a4d57d5bf56a810f","116.250.248.47","Mozilla/5.0 (Windows NT 10.0; Win64; x64) AppleWebKit/537.36 (KHTML, like Gecko) Chrome/99.0.4844.74 Safari/537.36 Edg/99.0.1150.55","WebKit","Edge","99.0.1150.55","Windows","10.0","null","null","","","
                        <div class=orange>
                        <div class=""centered"">
                            <p style=""font-size: 24px""><b>51%</b></p>
                        </div>","P_4_2_O",""
"","","","","","html-keyboard-response","35","249559","0.0-2.0-1.0-1.0-0.0","18","1","2022-04-01 23:15:51","c79472ad15d8b617a4d57d5bf56a810f","116.250.248.47","Mozilla/5.0 (Windows NT 10.0; Win64; x64) AppleWebKit/537.36 (KHTML, like Gecko) Chrome/99.0.4844.74 Safari/537.36 Edg/99.0.1150.55","WebKit","Edge","99.0.1150.55","Windows","10.0","null","null","","","<p style=""font-size:64px;"">+</p>","P_4_2_O",""
"","","","","","html-keyboard-response","36","250810","0.0-2.0-1.0-1.0-1.0","18","1","2022-04-01 23:15:51","c79472ad15d8b617a4d57d5bf56a810f","116.250.248.47","Mozilla/5.0 (Windows NT 10.0; Win64; x64) AppleWebKit/537.36 (KHTML, like Gecko) Chrome/99.0.4844.74 Safari/537.36 Edg/99.0.1150.55","WebKit","Edge","99.0.1150.55","Windows","10.0","null","null","","","
                        <div class=""orange"">
                        <div class=""centered"">
                            <p style=""font-size: 24px""><b>50%</b></p>
                        </div>","P_4_2_O",""
"","","","","","html-slider-response","37","257737","0.0-2.0-1.0-2.0","18","1","2022-04-01 23:15:51","c79472ad15d8b617a4d57d5bf56a810f","116.250.248.47","Mozilla/5.0 (Windows NT 10.0; Win64; x64) AppleWebKit/537.36 (KHTML, like Gecko) Chrome/99.0.4844.74 Safari/537.36 Edg/99.0.1150.55","WebKit","Edge","99.0.1150.55","Windows","10.0","6925.60000000149","29","","","<div style=""width: 500px; height: 100px;""><p>Place your bid for more information.</p></div>","infoBid","44"
"","","","","","html-keyboard-response","38","258139","0.0-2.0-1.0-3.0-0.0","18","1","2022-04-01 23:15:51","c79472ad15d8b617a4d57d5bf56a810f","116.250.248.47","Mozilla/5.0 (Windows NT 10.0; Win64; x64) AppleWebKit/537.36 (KHTML, like Gecko) Chrome/99.0.4844.74 Safari/537.36 Edg/99.0.1150.55","WebKit","Edge","99.0.1150.55","Windows","10.0","null","null","","","<p style=""font-size:64px;"">+</p>","P_4_2_O",""
"","","","","","html-keyboard-response","39","259392","0.0-2.0-1.0-3.0-1.0","18","1","2022-04-01 23:15:51","c79472ad15d8b617a4d57d5bf56a810f","116.250.248.47","Mozilla/5.0 (Windows NT 10.0; Win64; x64) AppleWebKit/537.36 (KHTML, like Gecko) Chrome/99.0.4844.74 Safari/537.36 Edg/99.0.1150.55","WebKit","Edge","99.0.1150.55","Windows","10.0","null","null","","","<div class=pink>
                <div class=""centered"">
                    <p style=""font-size: 24px""><b>53%</b></p>
                </div>","P_4_2_O",""
"","","","","","html-keyboard-response","40","260612","0.0-2.0-1.0-4.0-0.0","18","1","2022-04-01 23:15:51","c79472ad15d8b617a4d57d5bf56a810f","116.250.248.47","Mozilla/5.0 (Windows NT 10.0; Win64; x64) AppleWebKit/537.36 (KHTML, like Gecko) Chrome/99.0.4844.74 Safari/537.36 Edg/99.0.1150.55","WebKit","Edge","99.0.1150.55","Windows","10.0","1217.6000000014901","j","","","
                      <div class=""row"">

                          <div class=""column"">
                              <div class=""orange""></div>
                              <div class=""leftChoiceText"">
                                  <p style=""font-size: 32px""><b>F</b></p>
                              </div>
                          </div>

                          <div class=""column"">
                              <div class=""pink""></div>
                              <div class=""rightChoiceText"">
                                  <p style=""font-size: 32px""><b>J</b></p>
                              </div>
                          </div>

                      </div>

                      <div class=""centeredTop"">
                          Which colour do you<br>
                          predict will win?
                      </div>","P_4_2_O",""
"","","","","","html-keyboard-response","41","262113","0.0-2.0-1.0-4.0-1.0","18","1","2022-04-01 23:15:51","c79472ad15d8b617a4d57d5bf56a810f","116.250.248.47","Mozilla/5.0 (Windows NT 10.0; Win64; x64) AppleWebKit/537.36 (KHTML, like Gecko) Chrome/99.0.4844.74 Safari/537.36 Edg/99.0.1150.55","WebKit","Edge","99.0.1150.55","Windows","10.0","null","null","","","<p style=""font-size:64px;"">+</p>","P_4_2_O",""
"","","","","","html-keyboard-response","42","262515","0.0-2.0-2.0-0.0-0.0","18","1","2022-04-01 23:15:51","c79472ad15d8b617a4d57d5bf56a810f","116.250.248.47","Mozilla/5.0 (Windows NT 10.0; Win64; x64) AppleWebKit/537.36 (KHTML, like Gecko) Chrome/99.0.4844.74 Safari/537.36 Edg/99.0.1150.55","WebKit","Edge","99.0.1150.55","Windows","10.0","null","null","","","<p style=""font-size:64px;"">+</p>","O_4_1_O",""
"","","","","","html-keyboard-response","43","263769","0.0-2.0-2.0-0.0-1.0","18","1","2022-04-01 23:15:51","c79472ad15d8b617a4d57d5bf56a810f","116.250.248.47","Mozilla/5.0 (Windows NT 10.0; Win64; x64) AppleWebKit/537.36 (KHTML, like Gecko) Chrome/99.0.4844.74 Safari/537.36 Edg/99.0.1150.55","WebKit","Edge","99.0.1150.55","Windows","10.0","null","null","","","
                        <div class=orange>
                        <div class=""centered"">
                            <p style=""font-size: 24px""><b>54%</b></p>
                        </div>","O_4_1_O",""
"","","","","","html-keyboard-response","44","264170","0.0-2.0-2.0-0.0-0.1","18","1","2022-04-01 23:15:51","c79472ad15d8b617a4d57d5bf56a810f","116.250.248.47","Mozilla/5.0 (Windows NT 10.0; Win64; x64) AppleWebKit/537.36 (KHTML, like Gecko) Chrome/99.0.4844.74 Safari/537.36 Edg/99.0.1150.55","WebKit","Edge","99.0.1150.55","Windows","10.0","null","null","","","<p style=""font-size:64px;"">+</p>","O_4_1_O",""
"","","","","","html-keyboard-response","45","265422","0.0-2.0-2.0-0.0-1.1","18","1","2022-04-01 23:15:51","c79472ad15d8b617a4d57d5bf56a810f","116.250.248.47","Mozilla/5.0 (Windows NT 10.0; Win64; x64) AppleWebKit/537.36 (KHTML, like Gecko) Chrome/99.0.4844.74 Safari/537.36 Edg/99.0.1150.55","WebKit","Edge","99.0.1150.55","Windows","10.0","null","null","","","
                        <div class=orange>
                        <div class=""centered"">
                            <p style=""font-size: 24px""><b>53%</b></p>
                        </div>","O_4_1_O",""
"","","","","","html-keyboard-response","46","265824","0.0-2.0-2.0-0.0-0.2","18","1","2022-04-01 23:15:51","c79472ad15d8b617a4d57d5bf56a810f","116.250.248.47","Mozilla/5.0 (Windows NT 10.0; Win64; x64) AppleWebKit/537.36 (KHTML, like Gecko) Chrome/99.0.4844.74 Safari/537.36 Edg/99.0.1150.55","WebKit","Edge","99.0.1150.55","Windows","10.0","null","null","","","<p style=""font-size:64px;"">+</p>","O_4_1_O",""
"","","","","","html-keyboard-response","47","267076","0.0-2.0-2.0-0.0-1.2","18","1","2022-04-01 23:15:51","c79472ad15d8b617a4d57d5bf56a810f","116.250.248.47","Mozilla/5.0 (Windows NT 10.0; Win64; x64) AppleWebKit/537.36 (KHTML, like Gecko) Chrome/99.0.4844.74 Safari/537.36 Edg/99.0.1150.55","WebKit","Edge","99.0.1150.55","Windows","10.0","null","null","","","
                        <div class=pink>
                        <div class=""centered"">
                            <p style=""font-size: 24px""><b>55%</b></p>
                        </div>","O_4_1_O",""
"","","","","","html-keyboard-response","48","267478","0.0-2.0-2.0-0.0-0.3","18","1","2022-04-01 23:15:51","c79472ad15d8b617a4d57d5bf56a810f","116.250.248.47","Mozilla/5.0 (Windows NT 10.0; Win64; x64) AppleWebKit/537.36 (KHTML, like Gecko) Chrome/99.0.4844.74 Safari/537.36 Edg/99.0.1150.55","WebKit","Edge","99.0.1150.55","Windows","10.0","null","null","","","<p style=""font-size:64px;"">+</p>","O_4_1_O",""
"","","","","","html-keyboard-response","49","268729","0.0-2.0-2.0-0.0-1.3","18","1","2022-04-01 23:15:51","c79472ad15d8b617a4d57d5bf56a810f","116.250.248.47","Mozilla/5.0 (Windows NT 10.0; Win64; x64) AppleWebKit/537.36 (KHTML, like Gecko) Chrome/99.0.4844.74 Safari/537.36 Edg/99.0.1150.55","WebKit","Edge","99.0.1150.55","Windows","10.0","null","null","","","
                        <div class=pink>
                        <div class=""centered"">
                            <p style=""font-size: 24px""><b>51%</b></p>
                        </div>","O_4_1_O",""
"","","","","","html-keyboard-response","50","269131","0.0-2.0-2.0-0.0-0.4","18","1","2022-04-01 23:15:51","c79472ad15d8b617a4d57d5bf56a810f","116.250.248.47","Mozilla/5.0 (Windows NT 10.0; Win64; x64) AppleWebKit/537.36 (KHTML, like Gecko) Chrome/99.0.4844.74 Safari/537.36 Edg/99.0.1150.55","WebKit","Edge","99.0.1150.55","Windows","10.0","null","null","","","<p style=""font-size:64px;"">+</p>","O_4_1_O",""
"","","","","","html-keyboard-response","51","270383","0.0-2.0-2.0-0.0-1.4","18","1","2022-04-01 23:15:51","c79472ad15d8b617a4d57d5bf56a810f","116.250.248.47","Mozilla/5.0 (Windows NT 10.0; Win64; x64) AppleWebKit/537.36 (KHTML, like Gecko) Chrome/99.0.4844.74 Safari/537.36 Edg/99.0.1150.55","WebKit","Edge","99.0.1150.55","Windows","10.0","null","null","","","
                        <div class=pink>
                        <div class=""centered"">
                            <p style=""font-size: 24px""><b>51%</b></p>
                        </div>","O_4_1_O",""
"","","","","","html-keyboard-response","52","270785","0.0-2.0-2.0-0.0-0.5","18","1","2022-04-01 23:15:51","c79472ad15d8b617a4d57d5bf56a810f","116.250.248.47","Mozilla/5.0 (Windows NT 10.0; Win64; x64) AppleWebKit/537.36 (KHTML, like Gecko) Chrome/99.0.4844.74 Safari/537.36 Edg/99.0.1150.55","WebKit","Edge","99.0.1150.55","Windows","10.0","null","null","","","<p style=""font-size:64px;"">+</p>","O_4_1_O",""
"","","","","","html-keyboard-response","53","272038","0.0-2.0-2.0-0.0-1.5","18","1","2022-04-01 23:15:51","c79472ad15d8b617a4d57d5bf56a810f","116.250.248.47","Mozilla/5.0 (Windows NT 10.0; Win64; x64) AppleWebKit/537.36 (KHTML, like Gecko) Chrome/99.0.4844.74 Safari/537.36 Edg/99.0.1150.55","WebKit","Edge","99.0.1150.55","Windows","10.0","null","null","","","
                        <div class=orange>
                        <div class=""centered"">
                            <p style=""font-size: 24px""><b>54%</b></p>
                        </div>","O_4_1_O",""
"","","","","","html-keyboard-response","54","272441","0.0-2.0-2.0-1.0-0.0","18","1","2022-04-01 23:15:51","c79472ad15d8b617a4d57d5bf56a810f","116.250.248.47","Mozilla/5.0 (Windows NT 10.0; Win64; x64) AppleWebKit/537.36 (KHTML, like Gecko) Chrome/99.0.4844.74 Safari/537.36 Edg/99.0.1150.55","WebKit","Edge","99.0.1150.55","Windows","10.0","null","null","","","<p style=""font-size:64px;"">+</p>","O_4_1_O",""
"","","","","","html-keyboard-response","55","273693","0.0-2.0-2.0-1.0-1.0","18","1","2022-04-01 23:15:51","c79472ad15d8b617a4d57d5bf56a810f","116.250.248.47","Mozilla/5.0 (Windows NT 10.0; Win64; x64) AppleWebKit/537.36 (KHTML, like Gecko) Chrome/99.0.4844.74 Safari/537.36 Edg/99.0.1150.55","WebKit","Edge","99.0.1150.55","Windows","10.0","null","null","","","
                        <div class=""orange"">
                        <div class=""centered"">
                            <p style=""font-size: 24px""><b>50%</b></p>
                        </div>","O_4_1_O",""
"","","","","","html-slider-response","56","278163","0.0-2.0-2.0-2.0","18","1","2022-04-01 23:15:51","c79472ad15d8b617a4d57d5bf56a810f","116.250.248.47","Mozilla/5.0 (Windows NT 10.0; Win64; x64) AppleWebKit/537.36 (KHTML, like Gecko) Chrome/99.0.4844.74 Safari/537.36 Edg/99.0.1150.55","WebKit","Edge","99.0.1150.55","Windows","10.0","4468.39999999851","8","","","<div style=""width: 500px; height: 100px;""><p>Place your bid for more information.</p></div>","infoBid","35"
"","","","","","html-keyboard-response","57","278565","0.0-2.0-2.0-3.0-0.0","18","1","2022-04-01 23:15:51","c79472ad15d8b617a4d57d5bf56a810f","116.250.248.47","Mozilla/5.0 (Windows NT 10.0; Win64; x64) AppleWebKit/537.36 (KHTML, like Gecko) Chrome/99.0.4844.74 Safari/537.36 Edg/99.0.1150.55","WebKit","Edge","99.0.1150.55","Windows","10.0","null","null","","","<p style=""font-size:64px;"">+</p>","O_4_1_O",""
"","","","","","html-keyboard-response","58","279817","0.0-2.0-2.0-3.0-1.0","18","1","2022-04-01 23:15:51","c79472ad15d8b617a4d57d5bf56a810f","116.250.248.47","Mozilla/5.0 (Windows NT 10.0; Win64; x64) AppleWebKit/537.36 (KHTML, like Gecko) Chrome/99.0.4844.74 Safari/537.36 Edg/99.0.1150.55","WebKit","Edge","99.0.1150.55","Windows","10.0","null","null","","","<div class=""grey"">
                <div class=""centered"">
                    <p style=""font-size: 24px""><b>???</b></p>
                </div>","O_4_1_O",""
"","","","","","html-keyboard-response","59","281442","0.0-2.0-2.0-4.0-0.0","18","1","2022-04-01 23:15:51","c79472ad15d8b617a4d57d5bf56a810f","116.250.248.47","Mozilla/5.0 (Windows NT 10.0; Win64; x64) AppleWebKit/537.36 (KHTML, like Gecko) Chrome/99.0.4844.74 Safari/537.36 Edg/99.0.1150.55","WebKit","Edge","99.0.1150.55","Windows","10.0","1623.7999999970198","f","","","
                      <div class=""row"">

                          <div class=""column"">
                              <div class=""orange""></div>
                              <div class=""leftChoiceText"">
                                  <p style=""font-size: 32px""><b>F</b></p>
                              </div>
                          </div>

                          <div class=""column"">
                              <div class=""pink""></div>
                              <div class=""rightChoiceText"">
                                  <p style=""font-size: 32px""><b>J</b></p>
                              </div>
                          </div>

                      </div>

                      <div class=""centeredTop"">
                          Which colour do you<br>
                          predict will win?
                      </div>","O_4_1_O",""
"","","","","","html-keyboard-response","60","282943","0.0-2.0-2.0-4.0-1.0","18","1","2022-04-01 23:15:51","c79472ad15d8b617a4d57d5bf56a810f","116.250.248.47","Mozilla/5.0 (Windows NT 10.0; Win64; x64) AppleWebKit/537.36 (KHTML, like Gecko) Chrome/99.0.4844.74 Safari/537.36 Edg/99.0.1150.55","WebKit","Edge","99.0.1150.55","Windows","10.0","null","null","","","<p style=""font-size:64px;"">+</p>","O_4_1_O",""
"","","","","","html-keyboard-response","61","283345","0.0-2.0-3.0-0.0-0.0","18","1","2022-04-01 23:15:51","c79472ad15d8b617a4d57d5bf56a810f","116.250.248.47","Mozilla/5.0 (Windows NT 10.0; Win64; x64) AppleWebKit/537.36 (KHTML, like Gecko) Chrome/99.0.4844.74 Safari/537.36 Edg/99.0.1150.55","WebKit","Edge","99.0.1150.55","Windows","10.0","null","null","","","<p style=""font-size:64px;"">+</p>","O_4_4_O",""
"","","","","","html-keyboard-response","62","284598","0.0-2.0-3.0-0.0-1.0","18","1","2022-04-01 23:15:51","c79472ad15d8b617a4d57d5bf56a810f","116.250.248.47","Mozilla/5.0 (Windows NT 10.0; Win64; x64) AppleWebKit/537.36 (KHTML, like Gecko) Chrome/99.0.4844.74 Safari/537.36 Edg/99.0.1150.55","WebKit","Edge","99.0.1150.55","Windows","10.0","null","null","","","
                        <div class=pink>
                        <div class=""centered"">
                            <p style=""font-size: 24px""><b>52%</b></p>
                        </div>","O_4_4_O",""
"","","","","","html-keyboard-response","63","285000","0.0-2.0-3.0-0.0-0.1","18","1","2022-04-01 23:15:51","c79472ad15d8b617a4d57d5bf56a810f","116.250.248.47","Mozilla/5.0 (Windows NT 10.0; Win64; x64) AppleWebKit/537.36 (KHTML, like Gecko) Chrome/99.0.4844.74 Safari/537.36 Edg/99.0.1150.55","WebKit","Edge","99.0.1150.55","Windows","10.0","null","null","","","<p style=""font-size:64px;"">+</p>","O_4_4_O",""
"","","","","","html-keyboard-response","64","286252","0.0-2.0-3.0-0.0-1.1","18","1","2022-04-01 23:15:51","c79472ad15d8b617a4d57d5bf56a810f","116.250.248.47","Mozilla/5.0 (Windows NT 10.0; Win64; x64) AppleWebKit/537.36 (KHTML, like Gecko) Chrome/99.0.4844.74 Safari/537.36 Edg/99.0.1150.55","WebKit","Edge","99.0.1150.55","Windows","10.0","null","null","","","
                        <div class=pink>
                        <div class=""centered"">
                            <p style=""font-size: 24px""><b>55%</b></p>
                        </div>","O_4_4_O",""
"","","","","","html-keyboard-response","65","286656","0.0-2.0-3.0-0.0-0.2","18","1","2022-04-01 23:15:51","c79472ad15d8b617a4d57d5bf56a810f","116.250.248.47","Mozilla/5.0 (Windows NT 10.0; Win64; x64) AppleWebKit/537.36 (KHTML, like Gecko) Chrome/99.0.4844.74 Safari/537.36 Edg/99.0.1150.55","WebKit","Edge","99.0.1150.55","Windows","10.0","null","null","","","<p style=""font-size:64px;"">+</p>","O_4_4_O",""
"","","","","","html-keyboard-response","66","287908","0.0-2.0-3.0-0.0-1.2","18","1","2022-04-01 23:15:51","c79472ad15d8b617a4d57d5bf56a810f","116.250.248.47","Mozilla/5.0 (Windows NT 10.0; Win64; x64) AppleWebKit/537.36 (KHTML, like Gecko) Chrome/99.0.4844.74 Safari/537.36 Edg/99.0.1150.55","WebKit","Edge","99.0.1150.55","Windows","10.0","null","null","","","
                        <div class=orange>
                        <div class=""centered"">
                            <p style=""font-size: 24px""><b>54%</b></p>
                        </div>","O_4_4_O",""
"","","","","","html-keyboard-response","67","288309","0.0-2.0-3.0-0.0-0.3","18","1","2022-04-01 23:15:51","c79472ad15d8b617a4d57d5bf56a810f","116.250.248.47","Mozilla/5.0 (Windows NT 10.0; Win64; x64) AppleWebKit/537.36 (KHTML, like Gecko) Chrome/99.0.4844.74 Safari/537.36 Edg/99.0.1150.55","WebKit","Edge","99.0.1150.55","Windows","10.0","null","null","","","<p style=""font-size:64px;"">+</p>","O_4_4_O",""
"","","","","","html-keyboard-response","68","289561","0.0-2.0-3.0-0.0-1.3","18","1","2022-04-01 23:15:51","c79472ad15d8b617a4d57d5bf56a810f","116.250.248.47","Mozilla/5.0 (Windows NT 10.0; Win64; x64) AppleWebKit/537.36 (KHTML, like Gecko) Chrome/99.0.4844.74 Safari/537.36 Edg/99.0.1150.55","WebKit","Edge","99.0.1150.55","Windows","10.0","null","null","","","
                        <div class=pink>
                        <div class=""centered"">
                            <p style=""font-size: 24px""><b>52%</b></p>
                        </div>","O_4_4_O",""
"","","","","","html-keyboard-response","69","289962","0.0-2.0-3.0-0.0-0.4","18","1","2022-04-01 23:15:51","c79472ad15d8b617a4d57d5bf56a810f","116.250.248.47","Mozilla/5.0 (Windows NT 10.0; Win64; x64) AppleWebKit/537.36 (KHTML, like Gecko) Chrome/99.0.4844.74 Safari/537.36 Edg/99.0.1150.55","WebKit","Edge","99.0.1150.55","Windows","10.0","null","null","","","<p style=""font-size:64px;"">+</p>","O_4_4_O",""
"","","","","","html-keyboard-response","70","291214","0.0-2.0-3.0-0.0-1.4","18","1","2022-04-01 23:15:51","c79472ad15d8b617a4d57d5bf56a810f","116.250.248.47","Mozilla/5.0 (Windows NT 10.0; Win64; x64) AppleWebKit/537.36 (KHTML, like Gecko) Chrome/99.0.4844.74 Safari/537.36 Edg/99.0.1150.55","WebKit","Edge","99.0.1150.55","Windows","10.0","null","null","","","
                        <div class=orange>
                        <div class=""centered"">
                            <p style=""font-size: 24px""><b>55%</b></p>
                        </div>","O_4_4_O",""
"","","","","","html-keyboard-response","71","291616","0.0-2.0-3.0-0.0-0.5","18","1","2022-04-01 23:15:51","c79472ad15d8b617a4d57d5bf56a810f","116.250.248.47","Mozilla/5.0 (Windows NT 10.0; Win64; x64) AppleWebKit/537.36 (KHTML, like Gecko) Chrome/99.0.4844.74 Safari/537.36 Edg/99.0.1150.55","WebKit","Edge","99.0.1150.55","Windows","10.0","null","null","","","<p style=""font-size:64px;"">+</p>","O_4_4_O",""
"","","","","","html-keyboard-response","72","292868","0.0-2.0-3.0-0.0-1.5","18","1","2022-04-01 23:15:51","c79472ad15d8b617a4d57d5bf56a810f","116.250.248.47","Mozilla/5.0 (Windows NT 10.0; Win64; x64) AppleWebKit/537.36 (KHTML, like Gecko) Chrome/99.0.4844.74 Safari/537.36 Edg/99.0.1150.55","WebKit","Edge","99.0.1150.55","Windows","10.0","null","null","","","
                        <div class=orange>
                        <div class=""centered"">
                            <p style=""font-size: 24px""><b>54%</b></p>
                        </div>","O_4_4_O",""
"","","","","","html-keyboard-response","73","293270","0.0-2.0-3.0-1.0-0.0","18","1","2022-04-01 23:15:51","c79472ad15d8b617a4d57d5bf56a810f","116.250.248.47","Mozilla/5.0 (Windows NT 10.0; Win64; x64) AppleWebKit/537.36 (KHTML, like Gecko) Chrome/99.0.4844.74 Safari/537.36 Edg/99.0.1150.55","WebKit","Edge","99.0.1150.55","Windows","10.0","null","null","","","<p style=""font-size:64px;"">+</p>","O_4_4_O",""
"","","","","","html-keyboard-response","74","294521","0.0-2.0-3.0-1.0-1.0","18","1","2022-04-01 23:15:51","c79472ad15d8b617a4d57d5bf56a810f","116.250.248.47","Mozilla/5.0 (Windows NT 10.0; Win64; x64) AppleWebKit/537.36 (KHTML, like Gecko) Chrome/99.0.4844.74 Safari/537.36 Edg/99.0.1150.55","WebKit","Edge","99.0.1150.55","Windows","10.0","null","null","","","
                        <div class=""orange"">
                        <div class=""centered"">
                            <p style=""font-size: 24px""><b>50%</b></p>
                        </div>","O_4_4_O",""
"","","","","","html-slider-response","75","299017","0.0-2.0-3.0-2.0","18","1","2022-04-01 23:15:51","c79472ad15d8b617a4d57d5bf56a810f","116.250.248.47","Mozilla/5.0 (Windows NT 10.0; Win64; x64) AppleWebKit/537.36 (KHTML, like Gecko) Chrome/99.0.4844.74 Safari/537.36 Edg/99.0.1150.55","WebKit","Edge","99.0.1150.55","Windows","10.0","4493.19999999553","17","","","<div style=""width: 500px; height: 100px;""><p>Place your bid for more information.</p></div>","infoBid","35"
"","","","","","html-keyboard-response","76","299418","0.0-2.0-3.0-3.0-0.0","18","1","2022-04-01 23:15:51","c79472ad15d8b617a4d57d5bf56a810f","116.250.248.47","Mozilla/5.0 (Windows NT 10.0; Win64; x64) AppleWebKit/537.36 (KHTML, like Gecko) Chrome/99.0.4844.74 Safari/537.36 Edg/99.0.1150.55","WebKit","Edge","99.0.1150.55","Windows","10.0","null","null","","","<p style=""font-size:64px;"">+</p>","O_4_4_O",""
"","","","","","html-keyboard-response","77","300676","0.0-2.0-3.0-3.0-1.0","18","1","2022-04-01 23:15:51","c79472ad15d8b617a4d57d5bf56a810f","116.250.248.47","Mozilla/5.0 (Windows NT 10.0; Win64; x64) AppleWebKit/537.36 (KHTML, like Gecko) Chrome/99.0.4844.74 Safari/537.36 Edg/99.0.1150.55","WebKit","Edge","99.0.1150.55","Windows","10.0","null","null","","","<div class=""grey"">
                <div class=""centered"">
                    <p style=""font-size: 24px""><b>???</b></p>
                </div>","O_4_4_O",""
"","","","","","html-keyboard-response","78","302995","0.0-2.0-3.0-4.0-0.0","18","1","2022-04-01 23:15:51","c79472ad15d8b617a4d57d5bf56a810f","116.250.248.47","Mozilla/5.0 (Windows NT 10.0; Win64; x64) AppleWebKit/537.36 (KHTML, like Gecko) Chrome/99.0.4844.74 Safari/537.36 Edg/99.0.1150.55","WebKit","Edge","99.0.1150.55","Windows","10.0","2317.2999999970198","f","","","
                      <div class=""row"">

                          <div class=""column"">
                              <div class=""orange""></div>
                              <div class=""leftChoiceText"">
                                  <p style=""font-size: 32px""><b>F</b></p>
                              </div>
                          </div>

                          <div class=""column"">
                              <div class=""pink""></div>
                              <div class=""rightChoiceText"">
                                  <p style=""font-size: 32px""><b>J</b></p>
                              </div>
                          </div>

                      </div>

                      <div class=""centeredTop"">
                          Which colour do you<br>
                          predict will win?
                      </div>","O_4_4_O",""
"","","","","","html-keyboard-response","79","304503","0.0-2.0-3.0-4.0-1.0","18","1","2022-04-01 23:15:51","c79472ad15d8b617a4d57d5bf56a810f","116.250.248.47","Mozilla/5.0 (Windows NT 10.0; Win64; x64) AppleWebKit/537.36 (KHTML, like Gecko) Chrome/99.0.4844.74 Safari/537.36 Edg/99.0.1150.55","WebKit","Edge","99.0.1150.55","Windows","10.0","null","null","","","<p style=""font-size:64px;"">+</p>","O_4_4_O",""
"","","","","","html-keyboard-response","80","304906","0.0-2.0-4.0-0.0-0.0","18","1","2022-04-01 23:15:51","c79472ad15d8b617a4d57d5bf56a810f","116.250.248.47","Mozilla/5.0 (Windows NT 10.0; Win64; x64) AppleWebKit/537.36 (KHTML, like Gecko) Chrome/99.0.4844.74 Safari/537.36 Edg/99.0.1150.55","WebKit","Edge","99.0.1150.55","Windows","10.0","null","null","","","<p style=""font-size:64px;"">+</p>","O_4_6_P",""
"","","","","","html-keyboard-response","81","306158","0.0-2.0-4.0-0.0-1.0","18","1","2022-04-01 23:15:51","c79472ad15d8b617a4d57d5bf56a810f","116.250.248.47","Mozilla/5.0 (Windows NT 10.0; Win64; x64) AppleWebKit/537.36 (KHTML, like Gecko) Chrome/99.0.4844.74 Safari/537.36 Edg/99.0.1150.55","WebKit","Edge","99.0.1150.55","Windows","10.0","null","null","","","
                        <div class=orange>
                        <div class=""centered"">
                            <p style=""font-size: 24px""><b>55%</b></p>
                        </div>","O_4_6_P",""
"","","","","","html-keyboard-response","82","306560","0.0-2.0-4.0-0.0-0.1","18","1","2022-04-01 23:15:51","c79472ad15d8b617a4d57d5bf56a810f","116.250.248.47","Mozilla/5.0 (Windows NT 10.0; Win64; x64) AppleWebKit/537.36 (KHTML, like Gecko) Chrome/99.0.4844.74 Safari/537.36 Edg/99.0.1150.55","WebKit","Edge","99.0.1150.55","Windows","10.0","null","null","","","<p style=""font-size:64px;"">+</p>","O_4_6_P",""
"","","","","","html-keyboard-response","83","307812","0.0-2.0-4.0-0.0-1.1","18","1","2022-04-01 23:15:51","c79472ad15d8b617a4d57d5bf56a810f","116.250.248.47","Mozilla/5.0 (Windows NT 10.0; Win64; x64) AppleWebKit/537.36 (KHTML, like Gecko) Chrome/99.0.4844.74 Safari/537.36 Edg/99.0.1150.55","WebKit","Edge","99.0.1150.55","Windows","10.0","null","null","","","
                        <div class=orange>
                        <div class=""centered"">
                            <p style=""font-size: 24px""><b>54%</b></p>
                        </div>","O_4_6_P",""
"","","","","","html-keyboard-response","84","308214","0.0-2.0-4.0-0.0-0.2","18","1","2022-04-01 23:15:51","c79472ad15d8b617a4d57d5bf56a810f","116.250.248.47","Mozilla/5.0 (Windows NT 10.0; Win64; x64) AppleWebKit/537.36 (KHTML, like Gecko) Chrome/99.0.4844.74 Safari/537.36 Edg/99.0.1150.55","WebKit","Edge","99.0.1150.55","Windows","10.0","null","null","","","<p style=""font-size:64px;"">+</p>","O_4_6_P",""
"","","","","","html-keyboard-response","85","309468","0.0-2.0-4.0-0.0-1.2","18","1","2022-04-01 23:15:51","c79472ad15d8b617a4d57d5bf56a810f","116.250.248.47","Mozilla/5.0 (Windows NT 10.0; Win64; x64) AppleWebKit/537.36 (KHTML, like Gecko) Chrome/99.0.4844.74 Safari/537.36 Edg/99.0.1150.55","WebKit","Edge","99.0.1150.55","Windows","10.0","null","null","","","
                        <div class=orange>
                        <div class=""centered"">
                            <p style=""font-size: 24px""><b>54%</b></p>
                        </div>","O_4_6_P",""
"","","","","","html-keyboard-response","86","309870","0.0-2.0-4.0-0.0-0.3","18","1","2022-04-01 23:15:51","c79472ad15d8b617a4d57d5bf56a810f","116.250.248.47","Mozilla/5.0 (Windows NT 10.0; Win64; x64) AppleWebKit/537.36 (KHTML, like Gecko) Chrome/99.0.4844.74 Safari/537.36 Edg/99.0.1150.55","WebKit","Edge","99.0.1150.55","Windows","10.0","null","null","","","<p style=""font-size:64px;"">+</p>","O_4_6_P",""
"","","","","","html-keyboard-response","87","311122","0.0-2.0-4.0-0.0-1.3","18","1","2022-04-01 23:15:51","c79472ad15d8b617a4d57d5bf56a810f","116.250.248.47","Mozilla/5.0 (Windows NT 10.0; Win64; x64) AppleWebKit/537.36 (KHTML, like Gecko) Chrome/99.0.4844.74 Safari/537.36 Edg/99.0.1150.55","WebKit","Edge","99.0.1150.55","Windows","10.0","null","null","","","
                        <div class=pink>
                        <div class=""centered"">
                            <p style=""font-size: 24px""><b>53%</b></p>
                        </div>","O_4_6_P",""
"","","","","","html-keyboard-response","88","311524","0.0-2.0-4.0-0.0-0.4","18","1","2022-04-01 23:15:51","c79472ad15d8b617a4d57d5bf56a810f","116.250.248.47","Mozilla/5.0 (Windows NT 10.0; Win64; x64) AppleWebKit/537.36 (KHTML, like Gecko) Chrome/99.0.4844.74 Safari/537.36 Edg/99.0.1150.55","WebKit","Edge","99.0.1150.55","Windows","10.0","null","null","","","<p style=""font-size:64px;"">+</p>","O_4_6_P",""
"","","","","","html-keyboard-response","89","312776","0.0-2.0-4.0-0.0-1.4","18","1","2022-04-01 23:15:51","c79472ad15d8b617a4d57d5bf56a810f","116.250.248.47","Mozilla/5.0 (Windows NT 10.0; Win64; x64) AppleWebKit/537.36 (KHTML, like Gecko) Chrome/99.0.4844.74 Safari/537.36 Edg/99.0.1150.55","WebKit","Edge","99.0.1150.55","Windows","10.0","null","null","","","
                        <div class=pink>
                        <div class=""centered"">
                            <p style=""font-size: 24px""><b>54%</b></p>
                        </div>","O_4_6_P",""
"","","","","","html-keyboard-response","90","313178","0.0-2.0-4.0-0.0-0.5","18","1","2022-04-01 23:15:51","c79472ad15d8b617a4d57d5bf56a810f","116.250.248.47","Mozilla/5.0 (Windows NT 10.0; Win64; x64) AppleWebKit/537.36 (KHTML, like Gecko) Chrome/99.0.4844.74 Safari/537.36 Edg/99.0.1150.55","WebKit","Edge","99.0.1150.55","Windows","10.0","null","null","","","<p style=""font-size:64px;"">+</p>","O_4_6_P",""
"","","","","","html-keyboard-response","91","314431","0.0-2.0-4.0-0.0-1.5","18","1","2022-04-01 23:15:51","c79472ad15d8b617a4d57d5bf56a810f","116.250.248.47","Mozilla/5.0 (Windows NT 10.0; Win64; x64) AppleWebKit/537.36 (KHTML, like Gecko) Chrome/99.0.4844.74 Safari/537.36 Edg/99.0.1150.55","WebKit","Edge","99.0.1150.55","Windows","10.0","null","null","","","
                        <div class=pink>
                        <div class=""centered"">
                            <p style=""font-size: 24px""><b>52%</b></p>
                        </div>","O_4_6_P",""
"","","","","","html-keyboard-response","92","314834","0.0-2.0-4.0-1.0-0.0","18","1","2022-04-01 23:15:51","c79472ad15d8b617a4d57d5bf56a810f","116.250.248.47","Mozilla/5.0 (Windows NT 10.0; Win64; x64) AppleWebKit/537.36 (KHTML, like Gecko) Chrome/99.0.4844.74 Safari/537.36 Edg/99.0.1150.55","WebKit","Edge","99.0.1150.55","Windows","10.0","null","null","","","<p style=""font-size:64px;"">+</p>","O_4_6_P",""
"","","","","","html-keyboard-response","93","316087","0.0-2.0-4.0-1.0-1.0","18","1","2022-04-01 23:15:51","c79472ad15d8b617a4d57d5bf56a810f","116.250.248.47","Mozilla/5.0 (Windows NT 10.0; Win64; x64) AppleWebKit/537.36 (KHTML, like Gecko) Chrome/99.0.4844.74 Safari/537.36 Edg/99.0.1150.55","WebKit","Edge","99.0.1150.55","Windows","10.0","null","null","","","
                        <div class=""pink"">
                        <div class=""centered"">
                            <p style=""font-size: 24px""><b>50%</b></p>
                        </div>","O_4_6_P",""
"","","","","","html-slider-response","94","318801","0.0-2.0-4.0-2.0","18","1","2022-04-01 23:15:51","c79472ad15d8b617a4d57d5bf56a810f","116.250.248.47","Mozilla/5.0 (Windows NT 10.0; Win64; x64) AppleWebKit/537.36 (KHTML, like Gecko) Chrome/99.0.4844.74 Safari/537.36 Edg/99.0.1150.55","WebKit","Edge","99.0.1150.55","Windows","10.0","2713.1999999955297","32","","","<div style=""width: 500px; height: 100px;""><p>Place your bid for more information.</p></div>","infoBid","8"
"","","","","","html-keyboard-response","95","319203","0.0-2.0-4.0-3.0-0.0","18","1","2022-04-01 23:15:51","c79472ad15d8b617a4d57d5bf56a810f","116.250.248.47","Mozilla/5.0 (Windows NT 10.0; Win64; x64) AppleWebKit/537.36 (KHTML, like Gecko) Chrome/99.0.4844.74 Safari/537.36 Edg/99.0.1150.55","WebKit","Edge","99.0.1150.55","Windows","10.0","null","null","","","<p style=""font-size:64px;"">+</p>","O_4_6_P",""
"","","","","","html-keyboard-response","96","320456","0.0-2.0-4.0-3.0-1.0","18","1","2022-04-01 23:15:51","c79472ad15d8b617a4d57d5bf56a810f","116.250.248.47","Mozilla/5.0 (Windows NT 10.0; Win64; x64) AppleWebKit/537.36 (KHTML, like Gecko) Chrome/99.0.4844.74 Safari/537.36 Edg/99.0.1150.55","WebKit","Edge","99.0.1150.55","Windows","10.0","null","null","","","<div class=orange>
                <div class=""centered"">
                    <p style=""font-size: 24px""><b>53%</b></p>
                </div>","O_4_6_P",""
"","","","","","html-keyboard-response","97","321713","0.0-2.0-4.0-4.0-0.0","18","1","2022-04-01 23:15:51","c79472ad15d8b617a4d57d5bf56a810f","116.250.248.47","Mozilla/5.0 (Windows NT 10.0; Win64; x64) AppleWebKit/537.36 (KHTML, like Gecko) Chrome/99.0.4844.74 Safari/537.36 Edg/99.0.1150.55","WebKit","Edge","99.0.1150.55","Windows","10.0","1256.6999999955297","f","","","
                      <div class=""row"">

                          <div class=""column"">
                              <div class=""orange""></div>
                              <div class=""leftChoiceText"">
                                  <p style=""font-size: 32px""><b>F</b></p>
                              </div>
                          </div>

                          <div class=""column"">
                              <div class=""pink""></div>
                              <div class=""rightChoiceText"">
                                  <p style=""font-size: 32px""><b>J</b></p>
                              </div>
                          </div>

                      </div>

                      <div class=""centeredTop"">
                          Which colour do you<br>
                          predict will win?
                      </div>","O_4_6_P",""
"","","","","","html-keyboard-response","98","323215","0.0-2.0-4.0-4.0-1.0","18","1","2022-04-01 23:15:51","c79472ad15d8b617a4d57d5bf56a810f","116.250.248.47","Mozilla/5.0 (Windows NT 10.0; Win64; x64) AppleWebKit/537.36 (KHTML, like Gecko) Chrome/99.0.4844.74 Safari/537.36 Edg/99.0.1150.55","WebKit","Edge","99.0.1150.55","Windows","10.0","null","null","","","<p style=""font-size:64px;"">+</p>","O_4_6_P",""
"","","","","","html-keyboard-response","99","323617","0.0-2.0-5.0-0.0-0.0","18","1","2022-04-01 23:15:51","c79472ad15d8b617a4d57d5bf56a810f","116.250.248.47","Mozilla/5.0 (Windows NT 10.0; Win64; x64) AppleWebKit/537.36 (KHTML, like Gecko) Chrome/99.0.4844.74 Safari/537.36 Edg/99.0.1150.55","WebKit","Edge","99.0.1150.55","Windows","10.0","null","null","","","<p style=""font-size:64px;"">+</p>","P_4_1_P",""
"","","","","","html-keyboard-response","100","324868","0.0-2.0-5.0-0.0-1.0","18","1","2022-04-01 23:15:51","c79472ad15d8b617a4d57d5bf56a810f","116.250.248.47","Mozilla/5.0 (Windows NT 10.0; Win64; x64) AppleWebKit/537.36 (KHTML, like Gecko) Chrome/99.0.4844.74 Safari/537.36 Edg/99.0.1150.55","WebKit","Edge","99.0.1150.55","Windows","10.0","null","null","","","
                        <div class=orange>
                        <div class=""centered"">
                            <p style=""font-size: 24px""><b>55%</b></p>
                        </div>","P_4_1_P",""
"","","","","","html-keyboard-response","101","325271","0.0-2.0-5.0-0.0-0.1","18","1","2022-04-01 23:15:51","c79472ad15d8b617a4d57d5bf56a810f","116.250.248.47","Mozilla/5.0 (Windows NT 10.0; Win64; x64) AppleWebKit/537.36 (KHTML, like Gecko) Chrome/99.0.4844.74 Safari/537.36 Edg/99.0.1150.55","WebKit","Edge","99.0.1150.55","Windows","10.0","null","null","","","<p style=""font-size:64px;"">+</p>","P_4_1_P",""
"","","","","","html-keyboard-response","102","326523","0.0-2.0-5.0-0.0-1.1","18","1","2022-04-01 23:15:51","c79472ad15d8b617a4d57d5bf56a810f","116.250.248.47","Mozilla/5.0 (Windows NT 10.0; Win64; x64) AppleWebKit/537.36 (KHTML, like Gecko) Chrome/99.0.4844.74 Safari/537.36 Edg/99.0.1150.55","WebKit","Edge","99.0.1150.55","Windows","10.0","null","null","","","
                        <div class=orange>
                        <div class=""centered"">
                            <p style=""font-size: 24px""><b>51%</b></p>
                        </div>","P_4_1_P",""
"","","","","","html-keyboard-response","103","326925","0.0-2.0-5.0-0.0-0.2","18","1","2022-04-01 23:15:51","c79472ad15d8b617a4d57d5bf56a810f","116.250.248.47","Mozilla/5.0 (Windows NT 10.0; Win64; x64) AppleWebKit/537.36 (KHTML, like Gecko) Chrome/99.0.4844.74 Safari/537.36 Edg/99.0.1150.55","WebKit","Edge","99.0.1150.55","Windows","10.0","null","null","","","<p style=""font-size:64px;"">+</p>","P_4_1_P",""
"","","","","","html-keyboard-response","104","328178","0.0-2.0-5.0-0.0-1.2","18","1","2022-04-01 23:15:51","c79472ad15d8b617a4d57d5bf56a810f","116.250.248.47","Mozilla/5.0 (Windows NT 10.0; Win64; x64) AppleWebKit/537.36 (KHTML, like Gecko) Chrome/99.0.4844.74 Safari/537.36 Edg/99.0.1150.55","WebKit","Edge","99.0.1150.55","Windows","10.0","null","null","","","
                        <div class=pink>
                        <div class=""centered"">
                            <p style=""font-size: 24px""><b>54%</b></p>
                        </div>","P_4_1_P",""
"","","","","","html-keyboard-response","105","328580","0.0-2.0-5.0-0.0-0.3","18","1","2022-04-01 23:15:51","c79472ad15d8b617a4d57d5bf56a810f","116.250.248.47","Mozilla/5.0 (Windows NT 10.0; Win64; x64) AppleWebKit/537.36 (KHTML, like Gecko) Chrome/99.0.4844.74 Safari/537.36 Edg/99.0.1150.55","WebKit","Edge","99.0.1150.55","Windows","10.0","null","null","","","<p style=""font-size:64px;"">+</p>","P_4_1_P",""
"","","","","","html-keyboard-response","106","329832","0.0-2.0-5.0-0.0-1.3","18","1","2022-04-01 23:15:51","c79472ad15d8b617a4d57d5bf56a810f","116.250.248.47","Mozilla/5.0 (Windows NT 10.0; Win64; x64) AppleWebKit/537.36 (KHTML, like Gecko) Chrome/99.0.4844.74 Safari/537.36 Edg/99.0.1150.55","WebKit","Edge","99.0.1150.55","Windows","10.0","null","null","","","
                        <div class=orange>
                        <div class=""centered"">
                            <p style=""font-size: 24px""><b>51%</b></p>
                        </div>","P_4_1_P",""
"","","","","","html-keyboard-response","107","330233","0.0-2.0-5.0-0.0-0.4","18","1","2022-04-01 23:15:51","c79472ad15d8b617a4d57d5bf56a810f","116.250.248.47","Mozilla/5.0 (Windows NT 10.0; Win64; x64) AppleWebKit/537.36 (KHTML, like Gecko) Chrome/99.0.4844.74 Safari/537.36 Edg/99.0.1150.55","WebKit","Edge","99.0.1150.55","Windows","10.0","null","null","","","<p style=""font-size:64px;"">+</p>","P_4_1_P",""
"","","","","","html-keyboard-response","108","331488","0.0-2.0-5.0-0.0-1.4","18","1","2022-04-01 23:15:51","c79472ad15d8b617a4d57d5bf56a810f","116.250.248.47","Mozilla/5.0 (Windows NT 10.0; Win64; x64) AppleWebKit/537.36 (KHTML, like Gecko) Chrome/99.0.4844.74 Safari/537.36 Edg/99.0.1150.55","WebKit","Edge","99.0.1150.55","Windows","10.0","null","null","","","
                        <div class=pink>
                        <div class=""centered"">
                            <p style=""font-size: 24px""><b>53%</b></p>
                        </div>","P_4_1_P",""
"","","","","","html-keyboard-response","109","331890","0.0-2.0-5.0-0.0-0.5","18","1","2022-04-01 23:15:51","c79472ad15d8b617a4d57d5bf56a810f","116.250.248.47","Mozilla/5.0 (Windows NT 10.0; Win64; x64) AppleWebKit/537.36 (KHTML, like Gecko) Chrome/99.0.4844.74 Safari/537.36 Edg/99.0.1150.55","WebKit","Edge","99.0.1150.55","Windows","10.0","null","null","","","<p style=""font-size:64px;"">+</p>","P_4_1_P",""
"","","","","","html-keyboard-response","110","333143","0.0-2.0-5.0-0.0-1.5","18","1","2022-04-01 23:15:51","c79472ad15d8b617a4d57d5bf56a810f","116.250.248.47","Mozilla/5.0 (Windows NT 10.0; Win64; x64) AppleWebKit/537.36 (KHTML, like Gecko) Chrome/99.0.4844.74 Safari/537.36 Edg/99.0.1150.55","WebKit","Edge","99.0.1150.55","Windows","10.0","null","null","","","
                        <div class=pink>
                        <div class=""centered"">
                            <p style=""font-size: 24px""><b>54%</b></p>
                        </div>","P_4_1_P",""
"","","","","","html-keyboard-response","111","333544","0.0-2.0-5.0-1.0-0.0","18","1","2022-04-01 23:15:51","c79472ad15d8b617a4d57d5bf56a810f","116.250.248.47","Mozilla/5.0 (Windows NT 10.0; Win64; x64) AppleWebKit/537.36 (KHTML, like Gecko) Chrome/99.0.4844.74 Safari/537.36 Edg/99.0.1150.55","WebKit","Edge","99.0.1150.55","Windows","10.0","null","null","","","<p style=""font-size:64px;"">+</p>","P_4_1_P",""
"","","","","","html-keyboard-response","112","334797","0.0-2.0-5.0-1.0-1.0","18","1","2022-04-01 23:15:51","c79472ad15d8b617a4d57d5bf56a810f","116.250.248.47","Mozilla/5.0 (Windows NT 10.0; Win64; x64) AppleWebKit/537.36 (KHTML, like Gecko) Chrome/99.0.4844.74 Safari/537.36 Edg/99.0.1150.55","WebKit","Edge","99.0.1150.55","Windows","10.0","null","null","","","
                        <div class=""pink"">
                        <div class=""centered"">
                            <p style=""font-size: 24px""><b>50%</b></p>
                        </div>","P_4_1_P",""
"","","","","","html-slider-response","113","337952","0.0-2.0-5.0-2.0","18","1","2022-04-01 23:15:51","c79472ad15d8b617a4d57d5bf56a810f","116.250.248.47","Mozilla/5.0 (Windows NT 10.0; Win64; x64) AppleWebKit/537.36 (KHTML, like Gecko) Chrome/99.0.4844.74 Safari/537.36 Edg/99.0.1150.55","WebKit","Edge","99.0.1150.55","Windows","10.0","3153.89999999851","31","","","<div style=""width: 500px; height: 100px;""><p>Place your bid for more information.</p></div>","infoBid","9"
"","","","","","html-keyboard-response","114","338353","0.0-2.0-5.0-3.0-0.0","18","1","2022-04-01 23:15:51","c79472ad15d8b617a4d57d5bf56a810f","116.250.248.47","Mozilla/5.0 (Windows NT 10.0; Win64; x64) AppleWebKit/537.36 (KHTML, like Gecko) Chrome/99.0.4844.74 Safari/537.36 Edg/99.0.1150.55","WebKit","Edge","99.0.1150.55","Windows","10.0","null","null","","","<p style=""font-size:64px;"">+</p>","P_4_1_P",""
"","","","","","html-keyboard-response","115","339605","0.0-2.0-5.0-3.0-1.0","18","1","2022-04-01 23:15:51","c79472ad15d8b617a4d57d5bf56a810f","116.250.248.47","Mozilla/5.0 (Windows NT 10.0; Win64; x64) AppleWebKit/537.36 (KHTML, like Gecko) Chrome/99.0.4844.74 Safari/537.36 Edg/99.0.1150.55","WebKit","Edge","99.0.1150.55","Windows","10.0","null","null","","","<div class=""grey"">
                <div class=""centered"">
                    <p style=""font-size: 24px""><b>???</b></p>
                </div>","P_4_1_P",""
"","","","","","html-keyboard-response","116","340747","0.0-2.0-5.0-4.0-0.0","18","1","2022-04-01 23:15:51","c79472ad15d8b617a4d57d5bf56a810f","116.250.248.47","Mozilla/5.0 (Windows NT 10.0; Win64; x64) AppleWebKit/537.36 (KHTML, like Gecko) Chrome/99.0.4844.74 Safari/537.36 Edg/99.0.1150.55","WebKit","Edge","99.0.1150.55","Windows","10.0","1139.8000000044703","j","","","
                      <div class=""row"">

                          <div class=""column"">
                              <div class=""orange""></div>
                              <div class=""leftChoiceText"">
                                  <p style=""font-size: 32px""><b>F</b></p>
                              </div>
                          </div>

                          <div class=""column"">
                              <div class=""pink""></div>
                              <div class=""rightChoiceText"">
                                  <p style=""font-size: 32px""><b>J</b></p>
                              </div>
                          </div>

                      </div>

                      <div class=""centeredTop"">
                          Which colour do you<br>
                          predict will win?
                      </div>","P_4_1_P",""
"","","","","","html-keyboard-response","117","342248","0.0-2.0-5.0-4.0-1.0","18","1","2022-04-01 23:15:51","c79472ad15d8b617a4d57d5bf56a810f","116.250.248.47","Mozilla/5.0 (Windows NT 10.0; Win64; x64) AppleWebKit/537.36 (KHTML, like Gecko) Chrome/99.0.4844.74 Safari/537.36 Edg/99.0.1150.55","WebKit","Edge","99.0.1150.55","Windows","10.0","null","null","","","<p style=""font-size:64px;"">+</p>","P_4_1_P",""
"","","","","","html-keyboard-response","118","342649","0.0-2.0-6.0-0.0-0.0","18","1","2022-04-01 23:15:51","c79472ad15d8b617a4d57d5bf56a810f","116.250.248.47","Mozilla/5.0 (Windows NT 10.0; Win64; x64) AppleWebKit/537.36 (KHTML, like Gecko) Chrome/99.0.4844.74 Safari/537.36 Edg/99.0.1150.55","WebKit","Edge","99.0.1150.55","Windows","10.0","null","null","","","<p style=""font-size:64px;"">+</p>","O_4_2_O",""
"","","","","","html-keyboard-response","119","343901","0.0-2.0-6.0-0.0-1.0","18","1","2022-04-01 23:15:51","c79472ad15d8b617a4d57d5bf56a810f","116.250.248.47","Mozilla/5.0 (Windows NT 10.0; Win64; x64) AppleWebKit/537.36 (KHTML, like Gecko) Chrome/99.0.4844.74 Safari/537.36 Edg/99.0.1150.55","WebKit","Edge","99.0.1150.55","Windows","10.0","null","null","","","
                        <div class=orange>
                        <div class=""centered"">
                            <p style=""font-size: 24px""><b>54%</b></p>
                        </div>","O_4_2_O",""
"","","","","","html-keyboard-response","120","344303","0.0-2.0-6.0-0.0-0.1","18","1","2022-04-01 23:15:51","c79472ad15d8b617a4d57d5bf56a810f","116.250.248.47","Mozilla/5.0 (Windows NT 10.0; Win64; x64) AppleWebKit/537.36 (KHTML, like Gecko) Chrome/99.0.4844.74 Safari/537.36 Edg/99.0.1150.55","WebKit","Edge","99.0.1150.55","Windows","10.0","null","null","","","<p style=""font-size:64px;"">+</p>","O_4_2_O",""
"","","","","","html-keyboard-response","121","345554","0.0-2.0-6.0-0.0-1.1","18","1","2022-04-01 23:15:51","c79472ad15d8b617a4d57d5bf56a810f","116.250.248.47","Mozilla/5.0 (Windows NT 10.0; Win64; x64) AppleWebKit/537.36 (KHTML, like Gecko) Chrome/99.0.4844.74 Safari/537.36 Edg/99.0.1150.55","WebKit","Edge","99.0.1150.55","Windows","10.0","null","null","","","
                        <div class=orange>
                        <div class=""centered"">
                            <p style=""font-size: 24px""><b>51%</b></p>
                        </div>","O_4_2_O",""
"","","","","","html-keyboard-response","122","345956","0.0-2.0-6.0-0.0-0.2","18","1","2022-04-01 23:15:51","c79472ad15d8b617a4d57d5bf56a810f","116.250.248.47","Mozilla/5.0 (Windows NT 10.0; Win64; x64) AppleWebKit/537.36 (KHTML, like Gecko) Chrome/99.0.4844.74 Safari/537.36 Edg/99.0.1150.55","WebKit","Edge","99.0.1150.55","Windows","10.0","null","null","","","<p style=""font-size:64px;"">+</p>","O_4_2_O",""
"","","","","","html-keyboard-response","123","347207","0.0-2.0-6.0-0.0-1.2","18","1","2022-04-01 23:15:51","c79472ad15d8b617a4d57d5bf56a810f","116.250.248.47","Mozilla/5.0 (Windows NT 10.0; Win64; x64) AppleWebKit/537.36 (KHTML, like Gecko) Chrome/99.0.4844.74 Safari/537.36 Edg/99.0.1150.55","WebKit","Edge","99.0.1150.55","Windows","10.0","null","null","","","
                        <div class=pink>
                        <div class=""centered"">
                            <p style=""font-size: 24px""><b>52%</b></p>
                        </div>","O_4_2_O",""
"","","","","","html-keyboard-response","124","347610","0.0-2.0-6.0-0.0-0.3","18","1","2022-04-01 23:15:51","c79472ad15d8b617a4d57d5bf56a810f","116.250.248.47","Mozilla/5.0 (Windows NT 10.0; Win64; x64) AppleWebKit/537.36 (KHTML, like Gecko) Chrome/99.0.4844.74 Safari/537.36 Edg/99.0.1150.55","WebKit","Edge","99.0.1150.55","Windows","10.0","null","null","","","<p style=""font-size:64px;"">+</p>","O_4_2_O",""
"","","","","","html-keyboard-response","125","348862","0.0-2.0-6.0-0.0-1.3","18","1","2022-04-01 23:15:51","c79472ad15d8b617a4d57d5bf56a810f","116.250.248.47","Mozilla/5.0 (Windows NT 10.0; Win64; x64) AppleWebKit/537.36 (KHTML, like Gecko) Chrome/99.0.4844.74 Safari/537.36 Edg/99.0.1150.55","WebKit","Edge","99.0.1150.55","Windows","10.0","null","null","","","
                        <div class=pink>
                        <div class=""centered"">
                            <p style=""font-size: 24px""><b>51%</b></p>
                        </div>","O_4_2_O",""
"","","","","","html-keyboard-response","126","349266","0.0-2.0-6.0-0.0-0.4","18","1","2022-04-01 23:15:51","c79472ad15d8b617a4d57d5bf56a810f","116.250.248.47","Mozilla/5.0 (Windows NT 10.0; Win64; x64) AppleWebKit/537.36 (KHTML, like Gecko) Chrome/99.0.4844.74 Safari/537.36 Edg/99.0.1150.55","WebKit","Edge","99.0.1150.55","Windows","10.0","null","null","","","<p style=""font-size:64px;"">+</p>","O_4_2_O",""
"","","","","","html-keyboard-response","127","350520","0.0-2.0-6.0-0.0-1.4","18","1","2022-04-01 23:15:51","c79472ad15d8b617a4d57d5bf56a810f","116.250.248.47","Mozilla/5.0 (Windows NT 10.0; Win64; x64) AppleWebKit/537.36 (KHTML, like Gecko) Chrome/99.0.4844.74 Safari/537.36 Edg/99.0.1150.55","WebKit","Edge","99.0.1150.55","Windows","10.0","null","null","","","
                        <div class=orange>
                        <div class=""centered"">
                            <p style=""font-size: 24px""><b>54%</b></p>
                        </div>","O_4_2_O",""
"","","","","","html-keyboard-response","128","350921","0.0-2.0-6.0-0.0-0.5","18","1","2022-04-01 23:15:51","c79472ad15d8b617a4d57d5bf56a810f","116.250.248.47","Mozilla/5.0 (Windows NT 10.0; Win64; x64) AppleWebKit/537.36 (KHTML, like Gecko) Chrome/99.0.4844.74 Safari/537.36 Edg/99.0.1150.55","WebKit","Edge","99.0.1150.55","Windows","10.0","null","null","","","<p style=""font-size:64px;"">+</p>","O_4_2_O",""
"","","","","","html-keyboard-response","129","352173","0.0-2.0-6.0-0.0-1.5","18","1","2022-04-01 23:15:51","c79472ad15d8b617a4d57d5bf56a810f","116.250.248.47","Mozilla/5.0 (Windows NT 10.0; Win64; x64) AppleWebKit/537.36 (KHTML, like Gecko) Chrome/99.0.4844.74 Safari/537.36 Edg/99.0.1150.55","WebKit","Edge","99.0.1150.55","Windows","10.0","null","null","","","
                        <div class=pink>
                        <div class=""centered"">
                            <p style=""font-size: 24px""><b>52%</b></p>
                        </div>","O_4_2_O",""
"","","","","","html-keyboard-response","130","352574","0.0-2.0-6.0-1.0-0.0","18","1","2022-04-01 23:15:51","c79472ad15d8b617a4d57d5bf56a810f","116.250.248.47","Mozilla/5.0 (Windows NT 10.0; Win64; x64) AppleWebKit/537.36 (KHTML, like Gecko) Chrome/99.0.4844.74 Safari/537.36 Edg/99.0.1150.55","WebKit","Edge","99.0.1150.55","Windows","10.0","null","null","","","<p style=""font-size:64px;"">+</p>","O_4_2_O",""
"","","","","","html-keyboard-response","131","353827","0.0-2.0-6.0-1.0-1.0","18","1","2022-04-01 23:15:51","c79472ad15d8b617a4d57d5bf56a810f","116.250.248.47","Mozilla/5.0 (Windows NT 10.0; Win64; x64) AppleWebKit/537.36 (KHTML, like Gecko) Chrome/99.0.4844.74 Safari/537.36 Edg/99.0.1150.55","WebKit","Edge","99.0.1150.55","Windows","10.0","null","null","","","
                        <div class=""orange"">
                        <div class=""centered"">
                            <p style=""font-size: 24px""><b>50%</b></p>
                        </div>","O_4_2_O",""
"","","","","","html-slider-response","132","358426","0.0-2.0-6.0-2.0","18","1","2022-04-01 23:15:51","c79472ad15d8b617a4d57d5bf56a810f","116.250.248.47","Mozilla/5.0 (Windows NT 10.0; Win64; x64) AppleWebKit/537.36 (KHTML, like Gecko) Chrome/99.0.4844.74 Safari/537.36 Edg/99.0.1150.55","WebKit","Edge","99.0.1150.55","Windows","10.0","4598","0","","","<div style=""width: 500px; height: 100px;""><p>Place your bid for more information.</p></div>","infoBid","29"
"","","","","","html-keyboard-response","133","358830","0.0-2.0-6.0-3.0-0.0","18","1","2022-04-01 23:15:51","c79472ad15d8b617a4d57d5bf56a810f","116.250.248.47","Mozilla/5.0 (Windows NT 10.0; Win64; x64) AppleWebKit/537.36 (KHTML, like Gecko) Chrome/99.0.4844.74 Safari/537.36 Edg/99.0.1150.55","WebKit","Edge","99.0.1150.55","Windows","10.0","null","null","","","<p style=""font-size:64px;"">+</p>","O_4_2_O",""
"","","","","","html-keyboard-response","134","360081","0.0-2.0-6.0-3.0-1.0","18","1","2022-04-01 23:15:51","c79472ad15d8b617a4d57d5bf56a810f","116.250.248.47","Mozilla/5.0 (Windows NT 10.0; Win64; x64) AppleWebKit/537.36 (KHTML, like Gecko) Chrome/99.0.4844.74 Safari/537.36 Edg/99.0.1150.55","WebKit","Edge","99.0.1150.55","Windows","10.0","null","null","","","<div class=""grey"">
                <div class=""centered"">
                    <p style=""font-size: 24px""><b>???</b></p>
                </div>","O_4_2_O",""
"","","","","","html-keyboard-response","135","361007","0.0-2.0-6.0-4.0-0.0","18","1","2022-04-01 23:15:51","c79472ad15d8b617a4d57d5bf56a810f","116.250.248.47","Mozilla/5.0 (Windows NT 10.0; Win64; x64) AppleWebKit/537.36 (KHTML, like Gecko) Chrome/99.0.4844.74 Safari/537.36 Edg/99.0.1150.55","WebKit","Edge","99.0.1150.55","Windows","10.0","925.8000000044703","f","","","
                      <div class=""row"">

                          <div class=""column"">
                              <div class=""orange""></div>
                              <div class=""leftChoiceText"">
                                  <p style=""font-size: 32px""><b>F</b></p>
                              </div>
                          </div>

                          <div class=""column"">
                              <div class=""pink""></div>
                              <div class=""rightChoiceText"">
                                  <p style=""font-size: 32px""><b>J</b></p>
                              </div>
                          </div>

                      </div>

                      <div class=""centeredTop"">
                          Which colour do you<br>
                          predict will win?
                      </div>","O_4_2_O",""
"","","","","","html-keyboard-response","136","362509","0.0-2.0-6.0-4.0-1.0","18","1","2022-04-01 23:15:51","c79472ad15d8b617a4d57d5bf56a810f","116.250.248.47","Mozilla/5.0 (Windows NT 10.0; Win64; x64) AppleWebKit/537.36 (KHTML, like Gecko) Chrome/99.0.4844.74 Safari/537.36 Edg/99.0.1150.55","WebKit","Edge","99.0.1150.55","Windows","10.0","null","null","","","<p style=""font-size:64px;"">+</p>","O_4_2_O",""
"","","","","","html-keyboard-response","137","362911","0.0-2.0-7.0-0.0-0.0","18","1","2022-04-01 23:15:51","c79472ad15d8b617a4d57d5bf56a810f","116.250.248.47","Mozilla/5.0 (Windows NT 10.0; Win64; x64) AppleWebKit/537.36 (KHTML, like Gecko) Chrome/99.0.4844.74 Safari/537.36 Edg/99.0.1150.55","WebKit","Edge","99.0.1150.55","Windows","10.0","null","null","","","<p style=""font-size:64px;"">+</p>","O_4_5_P",""
"","","","","","html-keyboard-response","138","364163","0.0-2.0-7.0-0.0-1.0","18","1","2022-04-01 23:15:51","c79472ad15d8b617a4d57d5bf56a810f","116.250.248.47","Mozilla/5.0 (Windows NT 10.0; Win64; x64) AppleWebKit/537.36 (KHTML, like Gecko) Chrome/99.0.4844.74 Safari/537.36 Edg/99.0.1150.55","WebKit","Edge","99.0.1150.55","Windows","10.0","null","null","","","
                        <div class=pink>
                        <div class=""centered"">
                            <p style=""font-size: 24px""><b>52%</b></p>
                        </div>","O_4_5_P",""
"","","","","","html-keyboard-response","139","364565","0.0-2.0-7.0-0.0-0.1","18","1","2022-04-01 23:15:51","c79472ad15d8b617a4d57d5bf56a810f","116.250.248.47","Mozilla/5.0 (Windows NT 10.0; Win64; x64) AppleWebKit/537.36 (KHTML, like Gecko) Chrome/99.0.4844.74 Safari/537.36 Edg/99.0.1150.55","WebKit","Edge","99.0.1150.55","Windows","10.0","null","null","","","<p style=""font-size:64px;"">+</p>","O_4_5_P",""
"","","","","","html-keyboard-response","140","365817","0.0-2.0-7.0-0.0-1.1","18","1","2022-04-01 23:15:51","c79472ad15d8b617a4d57d5bf56a810f","116.250.248.47","Mozilla/5.0 (Windows NT 10.0; Win64; x64) AppleWebKit/537.36 (KHTML, like Gecko) Chrome/99.0.4844.74 Safari/537.36 Edg/99.0.1150.55","WebKit","Edge","99.0.1150.55","Windows","10.0","null","null","","","
                        <div class=orange>
                        <div class=""centered"">
                            <p style=""font-size: 24px""><b>53%</b></p>
                        </div>","O_4_5_P",""
"","","","","","html-keyboard-response","141","366219","0.0-2.0-7.0-0.0-0.2","18","1","2022-04-01 23:15:51","c79472ad15d8b617a4d57d5bf56a810f","116.250.248.47","Mozilla/5.0 (Windows NT 10.0; Win64; x64) AppleWebKit/537.36 (KHTML, like Gecko) Chrome/99.0.4844.74 Safari/537.36 Edg/99.0.1150.55","WebKit","Edge","99.0.1150.55","Windows","10.0","null","null","","","<p style=""font-size:64px;"">+</p>","O_4_5_P",""
"","","","","","html-keyboard-response","142","367471","0.0-2.0-7.0-0.0-1.2","18","1","2022-04-01 23:15:51","c79472ad15d8b617a4d57d5bf56a810f","116.250.248.47","Mozilla/5.0 (Windows NT 10.0; Win64; x64) AppleWebKit/537.36 (KHTML, like Gecko) Chrome/99.0.4844.74 Safari/537.36 Edg/99.0.1150.55","WebKit","Edge","99.0.1150.55","Windows","10.0","null","null","","","
                        <div class=pink>
                        <div class=""centered"">
                            <p style=""font-size: 24px""><b>53%</b></p>
                        </div>","O_4_5_P",""
"","","","","","html-keyboard-response","143","367875","0.0-2.0-7.0-0.0-0.3","18","1","2022-04-01 23:15:51","c79472ad15d8b617a4d57d5bf56a810f","116.250.248.47","Mozilla/5.0 (Windows NT 10.0; Win64; x64) AppleWebKit/537.36 (KHTML, like Gecko) Chrome/99.0.4844.74 Safari/537.36 Edg/99.0.1150.55","WebKit","Edge","99.0.1150.55","Windows","10.0","null","null","","","<p style=""font-size:64px;"">+</p>","O_4_5_P",""
"","","","","","html-keyboard-response","144","369130","0.0-2.0-7.0-0.0-1.3","18","1","2022-04-01 23:15:51","c79472ad15d8b617a4d57d5bf56a810f","116.250.248.47","Mozilla/5.0 (Windows NT 10.0; Win64; x64) AppleWebKit/537.36 (KHTML, like Gecko) Chrome/99.0.4844.74 Safari/537.36 Edg/99.0.1150.55","WebKit","Edge","99.0.1150.55","Windows","10.0","null","null","","","
                        <div class=orange>
                        <div class=""centered"">
                            <p style=""font-size: 24px""><b>54%</b></p>
                        </div>","O_4_5_P",""
"","","","","","html-keyboard-response","145","369536","0.0-2.0-7.0-0.0-0.4","18","1","2022-04-01 23:15:51","c79472ad15d8b617a4d57d5bf56a810f","116.250.248.47","Mozilla/5.0 (Windows NT 10.0; Win64; x64) AppleWebKit/537.36 (KHTML, like Gecko) Chrome/99.0.4844.74 Safari/537.36 Edg/99.0.1150.55","WebKit","Edge","99.0.1150.55","Windows","10.0","null","null","","","<p style=""font-size:64px;"">+</p>","O_4_5_P",""
"","","","","","html-keyboard-response","146","370787","0.0-2.0-7.0-0.0-1.4","18","1","2022-04-01 23:15:51","c79472ad15d8b617a4d57d5bf56a810f","116.250.248.47","Mozilla/5.0 (Windows NT 10.0; Win64; x64) AppleWebKit/537.36 (KHTML, like Gecko) Chrome/99.0.4844.74 Safari/537.36 Edg/99.0.1150.55","WebKit","Edge","99.0.1150.55","Windows","10.0","null","null","","","
                        <div class=pink>
                        <div class=""centered"">
                            <p style=""font-size: 24px""><b>53%</b></p>
                        </div>","O_4_5_P",""
"","","","","","html-keyboard-response","147","371189","0.0-2.0-7.0-0.0-0.5","18","1","2022-04-01 23:15:51","c79472ad15d8b617a4d57d5bf56a810f","116.250.248.47","Mozilla/5.0 (Windows NT 10.0; Win64; x64) AppleWebKit/537.36 (KHTML, like Gecko) Chrome/99.0.4844.74 Safari/537.36 Edg/99.0.1150.55","WebKit","Edge","99.0.1150.55","Windows","10.0","null","null","","","<p style=""font-size:64px;"">+</p>","O_4_5_P",""
"","","","","","html-keyboard-response","148","372441","0.0-2.0-7.0-0.0-1.5","18","1","2022-04-01 23:15:51","c79472ad15d8b617a4d57d5bf56a810f","116.250.248.47","Mozilla/5.0 (Windows NT 10.0; Win64; x64) AppleWebKit/537.36 (KHTML, like Gecko) Chrome/99.0.4844.74 Safari/537.36 Edg/99.0.1150.55","WebKit","Edge","99.0.1150.55","Windows","10.0","null","null","","","
                        <div class=orange>
                        <div class=""centered"">
                            <p style=""font-size: 24px""><b>55%</b></p>
                        </div>","O_4_5_P",""
"","","","","","html-keyboard-response","149","372843","0.0-2.0-7.0-1.0-0.0","18","1","2022-04-01 23:15:51","c79472ad15d8b617a4d57d5bf56a810f","116.250.248.47","Mozilla/5.0 (Windows NT 10.0; Win64; x64) AppleWebKit/537.36 (KHTML, like Gecko) Chrome/99.0.4844.74 Safari/537.36 Edg/99.0.1150.55","WebKit","Edge","99.0.1150.55","Windows","10.0","null","null","","","<p style=""font-size:64px;"">+</p>","O_4_5_P",""
"","","","","","html-keyboard-response","150","374095","0.0-2.0-7.0-1.0-1.0","18","1","2022-04-01 23:15:51","c79472ad15d8b617a4d57d5bf56a810f","116.250.248.47","Mozilla/5.0 (Windows NT 10.0; Win64; x64) AppleWebKit/537.36 (KHTML, like Gecko) Chrome/99.0.4844.74 Safari/537.36 Edg/99.0.1150.55","WebKit","Edge","99.0.1150.55","Windows","10.0","null","null","","","
                        <div class=""pink"">
                        <div class=""centered"">
                            <p style=""font-size: 24px""><b>50%</b></p>
                        </div>","O_4_5_P",""
"","","","","","html-slider-response","151","377304","0.0-2.0-7.0-2.0","18","1","2022-04-01 23:15:51","c79472ad15d8b617a4d57d5bf56a810f","116.250.248.47","Mozilla/5.0 (Windows NT 10.0; Win64; x64) AppleWebKit/537.36 (KHTML, like Gecko) Chrome/99.0.4844.74 Safari/537.36 Edg/99.0.1150.55","WebKit","Edge","99.0.1150.55","Windows","10.0","3208.2999999970198","1","","","<div style=""width: 500px; height: 100px;""><p>Place your bid for more information.</p></div>","infoBid","3"
"","","","","","html-keyboard-response","152","377708","0.0-2.0-7.0-3.0-0.0","18","1","2022-04-01 23:15:51","c79472ad15d8b617a4d57d5bf56a810f","116.250.248.47","Mozilla/5.0 (Windows NT 10.0; Win64; x64) AppleWebKit/537.36 (KHTML, like Gecko) Chrome/99.0.4844.74 Safari/537.36 Edg/99.0.1150.55","WebKit","Edge","99.0.1150.55","Windows","10.0","null","null","","","<p style=""font-size:64px;"">+</p>","O_4_5_P",""
"","","","","","html-keyboard-response","153","378960","0.0-2.0-7.0-3.0-1.0","18","1","2022-04-01 23:15:51","c79472ad15d8b617a4d57d5bf56a810f","116.250.248.47","Mozilla/5.0 (Windows NT 10.0; Win64; x64) AppleWebKit/537.36 (KHTML, like Gecko) Chrome/99.0.4844.74 Safari/537.36 Edg/99.0.1150.55","WebKit","Edge","99.0.1150.55","Windows","10.0","null","null","","","<div class=""grey"">
                <div class=""centered"">
                    <p style=""font-size: 24px""><b>???</b></p>
                </div>","O_4_5_P",""
"","","","","","html-keyboard-response","154","380501","0.0-2.0-7.0-4.0-0.0","18","1","2022-04-01 23:15:51","c79472ad15d8b617a4d57d5bf56a810f","116.250.248.47","Mozilla/5.0 (Windows NT 10.0; Win64; x64) AppleWebKit/537.36 (KHTML, like Gecko) Chrome/99.0.4844.74 Safari/537.36 Edg/99.0.1150.55","WebKit","Edge","99.0.1150.55","Windows","10.0","1540.9000000059605","f","","","
                      <div class=""row"">

                          <div class=""column"">
                              <div class=""orange""></div>
                              <div class=""leftChoiceText"">
                                  <p style=""font-size: 32px""><b>F</b></p>
                              </div>
                          </div>

                          <div class=""column"">
                              <div class=""pink""></div>
                              <div class=""rightChoiceText"">
                                  <p style=""font-size: 32px""><b>J</b></p>
                              </div>
                          </div>

                      </div>

                      <div class=""centeredTop"">
                          Which colour do you<br>
                          predict will win?
                      </div>","O_4_5_P",""
"","","","","","html-keyboard-response","155","382002","0.0-2.0-7.0-4.0-1.0","18","1","2022-04-01 23:15:51","c79472ad15d8b617a4d57d5bf56a810f","116.250.248.47","Mozilla/5.0 (Windows NT 10.0; Win64; x64) AppleWebKit/537.36 (KHTML, like Gecko) Chrome/99.0.4844.74 Safari/537.36 Edg/99.0.1150.55","WebKit","Edge","99.0.1150.55","Windows","10.0","null","null","","","<p style=""font-size:64px;"">+</p>","O_4_5_P",""
"","","","","","html-keyboard-response","156","387017","0.0-2.0-8.0","18","1","2022-04-01 23:15:51","c79472ad15d8b617a4d57d5bf56a810f","116.250.248.47","Mozilla/5.0 (Windows NT 10.0; Win64; x64) AppleWebKit/537.36 (KHTML, like Gecko) Chrome/99.0.4844.74 Safari/537.36 Edg/99.0.1150.55","WebKit","Edge","99.0.1150.55","Windows","10.0","5013.79999999702"," ","","","This is the end of the practice trials.<br><br>
        Press spacebar to begin the experiment.","",""
"","","","","","html-keyboard-response","157","387419","0.0-2.0-9.0-0.0-0.0","18","1","2022-04-01 23:15:51","c79472ad15d8b617a4d57d5bf56a810f","116.250.248.47","Mozilla/5.0 (Windows NT 10.0; Win64; x64) AppleWebKit/537.36 (KHTML, like Gecko) Chrome/99.0.4844.74 Safari/537.36 Edg/99.0.1150.55","WebKit","Edge","99.0.1150.55","Windows","10.0","null","null","","","<p style=""font-size:64px;"">+</p>","O_4_2_P",""
"","","","","","html-keyboard-response","158","388671","0.0-2.0-9.0-0.0-1.0","18","1","2022-04-01 23:15:51","c79472ad15d8b617a4d57d5bf56a810f","116.250.248.47","Mozilla/5.0 (Windows NT 10.0; Win64; x64) AppleWebKit/537.36 (KHTML, like Gecko) Chrome/99.0.4844.74 Safari/537.36 Edg/99.0.1150.55","WebKit","Edge","99.0.1150.55","Windows","10.0","null","null","","","
                        <div class=orange>
                        <div class=""centered"">
                            <p style=""font-size: 24px""><b>54%</b></p>
                        </div>","O_4_2_P",""
"","","","","","html-keyboard-response","159","389072","0.0-2.0-9.0-0.0-0.1","18","1","2022-04-01 23:15:51","c79472ad15d8b617a4d57d5bf56a810f","116.250.248.47","Mozilla/5.0 (Windows NT 10.0; Win64; x64) AppleWebKit/537.36 (KHTML, like Gecko) Chrome/99.0.4844.74 Safari/537.36 Edg/99.0.1150.55","WebKit","Edge","99.0.1150.55","Windows","10.0","null","null","","","<p style=""font-size:64px;"">+</p>","O_4_2_P",""
"","","","","","html-keyboard-response","160","390324","0.0-2.0-9.0-0.0-1.1","18","1","2022-04-01 23:15:51","c79472ad15d8b617a4d57d5bf56a810f","116.250.248.47","Mozilla/5.0 (Windows NT 10.0; Win64; x64) AppleWebKit/537.36 (KHTML, like Gecko) Chrome/99.0.4844.74 Safari/537.36 Edg/99.0.1150.55","WebKit","Edge","99.0.1150.55","Windows","10.0","null","null","","","
                        <div class=pink>
                        <div class=""centered"">
                            <p style=""font-size: 24px""><b>52%</b></p>
                        </div>","O_4_2_P",""
"","","","","","html-keyboard-response","161","390726","0.0-2.0-9.0-0.0-0.2","18","1","2022-04-01 23:15:51","c79472ad15d8b617a4d57d5bf56a810f","116.250.248.47","Mozilla/5.0 (Windows NT 10.0; Win64; x64) AppleWebKit/537.36 (KHTML, like Gecko) Chrome/99.0.4844.74 Safari/537.36 Edg/99.0.1150.55","WebKit","Edge","99.0.1150.55","Windows","10.0","null","null","","","<p style=""font-size:64px;"">+</p>","O_4_2_P",""
"","","","","","html-keyboard-response","162","391987","0.0-2.0-9.0-0.0-1.2","18","1","2022-04-01 23:15:51","c79472ad15d8b617a4d57d5bf56a810f","116.250.248.47","Mozilla/5.0 (Windows NT 10.0; Win64; x64) AppleWebKit/537.36 (KHTML, like Gecko) Chrome/99.0.4844.74 Safari/537.36 Edg/99.0.1150.55","WebKit","Edge","99.0.1150.55","Windows","10.0","null","null","","","
                        <div class=pink>
                        <div class=""centered"">
                            <p style=""font-size: 24px""><b>52%</b></p>
                        </div>","O_4_2_P",""
"","","","","","html-keyboard-response","163","392389","0.0-2.0-9.0-0.0-0.3","18","1","2022-04-01 23:15:51","c79472ad15d8b617a4d57d5bf56a810f","116.250.248.47","Mozilla/5.0 (Windows NT 10.0; Win64; x64) AppleWebKit/537.36 (KHTML, like Gecko) Chrome/99.0.4844.74 Safari/537.36 Edg/99.0.1150.55","WebKit","Edge","99.0.1150.55","Windows","10.0","null","null","","","<p style=""font-size:64px;"">+</p>","O_4_2_P",""
"","","","","","html-keyboard-response","164","393640","0.0-2.0-9.0-0.0-1.3","18","1","2022-04-01 23:15:51","c79472ad15d8b617a4d57d5bf56a810f","116.250.248.47","Mozilla/5.0 (Windows NT 10.0; Win64; x64) AppleWebKit/537.36 (KHTML, like Gecko) Chrome/99.0.4844.74 Safari/537.36 Edg/99.0.1150.55","WebKit","Edge","99.0.1150.55","Windows","10.0","null","null","","","
                        <div class=orange>
                        <div class=""centered"">
                            <p style=""font-size: 24px""><b>54%</b></p>
                        </div>","O_4_2_P",""
"","","","","","html-keyboard-response","165","394041","0.0-2.0-9.0-0.0-0.4","18","1","2022-04-01 23:15:51","c79472ad15d8b617a4d57d5bf56a810f","116.250.248.47","Mozilla/5.0 (Windows NT 10.0; Win64; x64) AppleWebKit/537.36 (KHTML, like Gecko) Chrome/99.0.4844.74 Safari/537.36 Edg/99.0.1150.55","WebKit","Edge","99.0.1150.55","Windows","10.0","null","null","","","<p style=""font-size:64px;"">+</p>","O_4_2_P",""
"","","","","","html-keyboard-response","166","395293","0.0-2.0-9.0-0.0-1.4","18","1","2022-04-01 23:15:51","c79472ad15d8b617a4d57d5bf56a810f","116.250.248.47","Mozilla/5.0 (Windows NT 10.0; Win64; x64) AppleWebKit/537.36 (KHTML, like Gecko) Chrome/99.0.4844.74 Safari/537.36 Edg/99.0.1150.55","WebKit","Edge","99.0.1150.55","Windows","10.0","null","null","","","
                        <div class=pink>
                        <div class=""centered"">
                            <p style=""font-size: 24px""><b>51%</b></p>
                        </div>","O_4_2_P",""
"","","","","","html-keyboard-response","167","395694","0.0-2.0-9.0-0.0-0.5","18","1","2022-04-01 23:15:51","c79472ad15d8b617a4d57d5bf56a810f","116.250.248.47","Mozilla/5.0 (Windows NT 10.0; Win64; x64) AppleWebKit/537.36 (KHTML, like Gecko) Chrome/99.0.4844.74 Safari/537.36 Edg/99.0.1150.55","WebKit","Edge","99.0.1150.55","Windows","10.0","null","null","","","<p style=""font-size:64px;"">+</p>","O_4_2_P",""
"","","","","","html-keyboard-response","168","396948","0.0-2.0-9.0-0.0-1.5","18","1","2022-04-01 23:15:51","c79472ad15d8b617a4d57d5bf56a810f","116.250.248.47","Mozilla/5.0 (Windows NT 10.0; Win64; x64) AppleWebKit/537.36 (KHTML, like Gecko) Chrome/99.0.4844.74 Safari/537.36 Edg/99.0.1150.55","WebKit","Edge","99.0.1150.55","Windows","10.0","null","null","","","
                        <div class=orange>
                        <div class=""centered"">
                            <p style=""font-size: 24px""><b>51%</b></p>
                        </div>","O_4_2_P",""
"","","","","","html-keyboard-response","169","397349","0.0-2.0-9.0-1.0-0.0","18","1","2022-04-01 23:15:51","c79472ad15d8b617a4d57d5bf56a810f","116.250.248.47","Mozilla/5.0 (Windows NT 10.0; Win64; x64) AppleWebKit/537.36 (KHTML, like Gecko) Chrome/99.0.4844.74 Safari/537.36 Edg/99.0.1150.55","WebKit","Edge","99.0.1150.55","Windows","10.0","null","null","","","<p style=""font-size:64px;"">+</p>","O_4_2_P",""
"","","","","","html-keyboard-response","170","398601","0.0-2.0-9.0-1.0-1.0","18","1","2022-04-01 23:15:51","c79472ad15d8b617a4d57d5bf56a810f","116.250.248.47","Mozilla/5.0 (Windows NT 10.0; Win64; x64) AppleWebKit/537.36 (KHTML, like Gecko) Chrome/99.0.4844.74 Safari/537.36 Edg/99.0.1150.55","WebKit","Edge","99.0.1150.55","Windows","10.0","null","null","","","
                        <div class=""pink"">
                        <div class=""centered"">
                            <p style=""font-size: 24px""><b>50%</b></p>
                        </div>","O_4_2_P",""
"","","","","","html-slider-response","171","403059","0.0-2.0-9.0-2.0","18","1","2022-04-01 23:15:51","c79472ad15d8b617a4d57d5bf56a810f","116.250.248.47","Mozilla/5.0 (Windows NT 10.0; Win64; x64) AppleWebKit/537.36 (KHTML, like Gecko) Chrome/99.0.4844.74 Safari/537.36 Edg/99.0.1150.55","WebKit","Edge","99.0.1150.55","Windows","10.0","4456.10000000149","31","","","<div style=""width: 500px; height: 100px;""><p>Place your bid for more information.</p></div>","infoBid","28"
"","","","","","html-keyboard-response","172","403461","0.0-2.0-9.0-3.0-0.0","18","1","2022-04-01 23:15:51","c79472ad15d8b617a4d57d5bf56a810f","116.250.248.47","Mozilla/5.0 (Windows NT 10.0; Win64; x64) AppleWebKit/537.36 (KHTML, like Gecko) Chrome/99.0.4844.74 Safari/537.36 Edg/99.0.1150.55","WebKit","Edge","99.0.1150.55","Windows","10.0","null","null","","","<p style=""font-size:64px;"">+</p>","O_4_2_P",""
"","","","","","html-keyboard-response","173","404713","0.0-2.0-9.0-3.0-1.0","18","1","2022-04-01 23:15:51","c79472ad15d8b617a4d57d5bf56a810f","116.250.248.47","Mozilla/5.0 (Windows NT 10.0; Win64; x64) AppleWebKit/537.36 (KHTML, like Gecko) Chrome/99.0.4844.74 Safari/537.36 Edg/99.0.1150.55","WebKit","Edge","99.0.1150.55","Windows","10.0","null","null","","","<div class=orange>
                <div class=""centered"">
                    <p style=""font-size: 24px""><b>51%</b></p>
                </div>","O_4_2_P",""
"","","","","","html-keyboard-response","174","405860","0.0-2.0-9.0-4.0-0.0","18","1","2022-04-01 23:15:51","c79472ad15d8b617a4d57d5bf56a810f","116.250.248.47","Mozilla/5.0 (Windows NT 10.0; Win64; x64) AppleWebKit/537.36 (KHTML, like Gecko) Chrome/99.0.4844.74 Safari/537.36 Edg/99.0.1150.55","WebKit","Edge","99.0.1150.55","Windows","10.0","1144.8000000044703","f","","","
                      <div class=""row"">

                          <div class=""column"">
                              <div class=""orange""></div>
                              <div class=""leftChoiceText"">
                                  <p style=""font-size: 32px""><b>F</b></p>
                              </div>
                          </div>

                          <div class=""column"">
                              <div class=""pink""></div>
                              <div class=""rightChoiceText"">
                                  <p style=""font-size: 32px""><b>J</b></p>
                              </div>
                          </div>

                      </div>

                      <div class=""centeredTop"">
                          Which colour do you<br>
                          predict will win?
                      </div>","O_4_2_P",""
"","","","","","html-keyboard-response","175","407362","0.0-2.0-9.0-4.0-1.0","18","1","2022-04-01 23:15:51","c79472ad15d8b617a4d57d5bf56a810f","116.250.248.47","Mozilla/5.0 (Windows NT 10.0; Win64; x64) AppleWebKit/537.36 (KHTML, like Gecko) Chrome/99.0.4844.74 Safari/537.36 Edg/99.0.1150.55","WebKit","Edge","99.0.1150.55","Windows","10.0","null","null","","","<p style=""font-size:64px;"">+</p>","O_4_2_P",""
"","","","","","html-keyboard-response","176","407764","0.0-2.0-10.0-0.0-0.0","18","1","2022-04-01 23:15:51","c79472ad15d8b617a4d57d5bf56a810f","116.250.248.47","Mozilla/5.0 (Windows NT 10.0; Win64; x64) AppleWebKit/537.36 (KHTML, like Gecko) Chrome/99.0.4844.74 Safari/537.36 Edg/99.0.1150.55","WebKit","Edge","99.0.1150.55","Windows","10.0","null","null","","","<p style=""font-size:64px;"">+</p>","Z_6_O",""
"","","","","","html-keyboard-response","177","409016","0.0-2.0-10.0-0.0-1.0","18","1","2022-04-01 23:15:51","c79472ad15d8b617a4d57d5bf56a810f","116.250.248.47","Mozilla/5.0 (Windows NT 10.0; Win64; x64) AppleWebKit/537.36 (KHTML, like Gecko) Chrome/99.0.4844.74 Safari/537.36 Edg/99.0.1150.55","WebKit","Edge","99.0.1150.55","Windows","10.0","null","null","","","
                        <div class=orange>
                        <div class=""centered"">
                            <p style=""font-size: 24px""><b>55%</b></p>
                        </div>","Z_6_O",""
"","","","","","html-keyboard-response","178","409418","0.0-2.0-10.0-0.0-0.1","18","1","2022-04-01 23:15:51","c79472ad15d8b617a4d57d5bf56a810f","116.250.248.47","Mozilla/5.0 (Windows NT 10.0; Win64; x64) AppleWebKit/537.36 (KHTML, like Gecko) Chrome/99.0.4844.74 Safari/537.36 Edg/99.0.1150.55","WebKit","Edge","99.0.1150.55","Windows","10.0","null","null","","","<p style=""font-size:64px;"">+</p>","Z_6_O",""
"","","","","","html-keyboard-response","179","410669","0.0-2.0-10.0-0.0-1.1","18","1","2022-04-01 23:15:51","c79472ad15d8b617a4d57d5bf56a810f","116.250.248.47","Mozilla/5.0 (Windows NT 10.0; Win64; x64) AppleWebKit/537.36 (KHTML, like Gecko) Chrome/99.0.4844.74 Safari/537.36 Edg/99.0.1150.55","WebKit","Edge","99.0.1150.55","Windows","10.0","null","null","","","
                        <div class=orange>
                        <div class=""centered"">
                            <p style=""font-size: 24px""><b>55%</b></p>
                        </div>","Z_6_O",""
"","","","","","html-keyboard-response","180","411071","0.0-2.0-10.0-0.0-0.2","18","1","2022-04-01 23:15:51","c79472ad15d8b617a4d57d5bf56a810f","116.250.248.47","Mozilla/5.0 (Windows NT 10.0; Win64; x64) AppleWebKit/537.36 (KHTML, like Gecko) Chrome/99.0.4844.74 Safari/537.36 Edg/99.0.1150.55","WebKit","Edge","99.0.1150.55","Windows","10.0","null","null","","","<p style=""font-size:64px;"">+</p>","Z_6_O",""
"","","","","","html-keyboard-response","181","412323","0.0-2.0-10.0-0.0-1.2","18","1","2022-04-01 23:15:51","c79472ad15d8b617a4d57d5bf56a810f","116.250.248.47","Mozilla/5.0 (Windows NT 10.0; Win64; x64) AppleWebKit/537.36 (KHTML, like Gecko) Chrome/99.0.4844.74 Safari/537.36 Edg/99.0.1150.55","WebKit","Edge","99.0.1150.55","Windows","10.0","null","null","","","
                        <div class=pink>
                        <div class=""centered"">
                            <p style=""font-size: 24px""><b>54%</b></p>
                        </div>","Z_6_O",""
"","","","","","html-keyboard-response","182","412726","0.0-2.0-10.0-0.0-0.3","18","1","2022-04-01 23:15:51","c79472ad15d8b617a4d57d5bf56a810f","116.250.248.47","Mozilla/5.0 (Windows NT 10.0; Win64; x64) AppleWebKit/537.36 (KHTML, like Gecko) Chrome/99.0.4844.74 Safari/537.36 Edg/99.0.1150.55","WebKit","Edge","99.0.1150.55","Windows","10.0","null","null","","","<p style=""font-size:64px;"">+</p>","Z_6_O",""
"","","","","","html-keyboard-response","183","413978","0.0-2.0-10.0-0.0-1.3","18","1","2022-04-01 23:15:51","c79472ad15d8b617a4d57d5bf56a810f","116.250.248.47","Mozilla/5.0 (Windows NT 10.0; Win64; x64) AppleWebKit/537.36 (KHTML, like Gecko) Chrome/99.0.4844.74 Safari/537.36 Edg/99.0.1150.55","WebKit","Edge","99.0.1150.55","Windows","10.0","null","null","","","
                        <div class=pink>
                        <div class=""centered"">
                            <p style=""font-size: 24px""><b>54%</b></p>
                        </div>","Z_6_O",""
"","","","","","html-keyboard-response","184","414382","0.0-2.0-10.0-0.0-0.4","18","1","2022-04-01 23:15:51","c79472ad15d8b617a4d57d5bf56a810f","116.250.248.47","Mozilla/5.0 (Windows NT 10.0; Win64; x64) AppleWebKit/537.36 (KHTML, like Gecko) Chrome/99.0.4844.74 Safari/537.36 Edg/99.0.1150.55","WebKit","Edge","99.0.1150.55","Windows","10.0","null","null","","","<p style=""font-size:64px;"">+</p>","Z_6_O",""
"","","","","","html-keyboard-response","185","415635","0.0-2.0-10.0-0.0-1.4","18","1","2022-04-01 23:15:51","c79472ad15d8b617a4d57d5bf56a810f","116.250.248.47","Mozilla/5.0 (Windows NT 10.0; Win64; x64) AppleWebKit/537.36 (KHTML, like Gecko) Chrome/99.0.4844.74 Safari/537.36 Edg/99.0.1150.55","WebKit","Edge","99.0.1150.55","Windows","10.0","null","null","","","
                        <div class=orange>
                        <div class=""centered"">
                            <p style=""font-size: 24px""><b>53%</b></p>
                        </div>","Z_6_O",""
"","","","","","html-keyboard-response","186","416036","0.0-2.0-10.0-0.0-0.5","18","1","2022-04-01 23:15:51","c79472ad15d8b617a4d57d5bf56a810f","116.250.248.47","Mozilla/5.0 (Windows NT 10.0; Win64; x64) AppleWebKit/537.36 (KHTML, like Gecko) Chrome/99.0.4844.74 Safari/537.36 Edg/99.0.1150.55","WebKit","Edge","99.0.1150.55","Windows","10.0","null","null","","","<p style=""font-size:64px;"">+</p>","Z_6_O",""
"","","","","","html-keyboard-response","187","417288","0.0-2.0-10.0-0.0-1.5","18","1","2022-04-01 23:15:51","c79472ad15d8b617a4d57d5bf56a810f","116.250.248.47","Mozilla/5.0 (Windows NT 10.0; Win64; x64) AppleWebKit/537.36 (KHTML, like Gecko) Chrome/99.0.4844.74 Safari/537.36 Edg/99.0.1150.55","WebKit","Edge","99.0.1150.55","Windows","10.0","null","null","","","
                        <div class=pink>
                        <div class=""centered"">
                            <p style=""font-size: 24px""><b>55%</b></p>
                        </div>","Z_6_O",""
"","","","","","html-keyboard-response","188","417689","0.0-2.0-10.0-1.0-0.0","18","1","2022-04-01 23:15:51","c79472ad15d8b617a4d57d5bf56a810f","116.250.248.47","Mozilla/5.0 (Windows NT 10.0; Win64; x64) AppleWebKit/537.36 (KHTML, like Gecko) Chrome/99.0.4844.74 Safari/537.36 Edg/99.0.1150.55","WebKit","Edge","99.0.1150.55","Windows","10.0","null","null","","","<p style=""font-size:64px;"">+</p>","Z_6_O",""
"","","","","","html-keyboard-response","189","418941","0.0-2.0-10.0-1.0-1.0","18","1","2022-04-01 23:15:51","c79472ad15d8b617a4d57d5bf56a810f","116.250.248.47","Mozilla/5.0 (Windows NT 10.0; Win64; x64) AppleWebKit/537.36 (KHTML, like Gecko) Chrome/99.0.4844.74 Safari/537.36 Edg/99.0.1150.55","WebKit","Edge","99.0.1150.55","Windows","10.0","null","null","","","
                        <div class=""orange"">
                        <div class=""centered"">
                            <p style=""font-size: 24px""><b>50%</b></p>
