"success","timeout","failed_images","failed_audio","failed_video","trial_type","trial_index","time_elapsed","internal_node_id","run_id","condition","recorded_at","source_code_version","ip","user_agent","device","browser","browser_version","platform","platform_version","rt","response","question_order","view_history","stimulus","trial_name","slider_start"
"true","false","[]","[]","[]","preload","0","98","0.0-0.0","38","1","2022-04-05 02:48:59","c79472ad15d8b617a4d57d5bf56a810f","58.11.10.85","Mozilla/5.0 (Windows NT 10.0; Win64; x64) AppleWebKit/537.36 (KHTML, like Gecko) Chrome/99.0.4844.74 Safari/537.36","WebKit","Chrome","99.0.4844.74","Windows","10.0","","","","","","",""
"","","","","","survey-multi-choice","1","1757","0.0-1.0-0.0","38","1","2022-04-05 02:48:59","c79472ad15d8b617a4d57d5bf56a810f","58.11.10.85","Mozilla/5.0 (Windows NT 10.0; Win64; x64) AppleWebKit/537.36 (KHTML, like Gecko) Chrome/99.0.4844.74 Safari/537.36","WebKit","Chrome","99.0.4844.74","Windows","10.0","1656.2000000476837","{""Gender"":""Female""}","[0]","","","",""
"","","","","","survey-text","2","5089","0.0-1.0-1.0","38","1","2022-04-05 02:48:59","c79472ad15d8b617a4d57d5bf56a810f","58.11.10.85","Mozilla/5.0 (Windows NT 10.0; Win64; x64) AppleWebKit/537.36 (KHTML, like Gecko) Chrome/99.0.4844.74 Safari/537.36","WebKit","Chrome","99.0.4844.74","Windows","10.0","3328.5","{""Age"":""21""}","","","","",""
"","","","","","instructions","3","119237","0.0-1.0-2.0","38","1","2022-04-05 02:48:59","c79472ad15d8b617a4d57d5bf56a810f","58.11.10.85","Mozilla/5.0 (Windows NT 10.0; Win64; x64) AppleWebKit/537.36 (KHTML, like Gecko) Chrome/99.0.4844.74 Safari/537.36","WebKit","Chrome","99.0.4844.74","Windows","10.0","114147.5","","","[{""page_index"":0,""viewing_time"":3517},{""page_index"":1,""viewing_time"":13078},{""page_index"":2,""viewing_time"":14061.900000095367},{""page_index"":3,""viewing_time"":4008.0999999046326},{""page_index"":4,""viewing_time"":4819.900000095367},{""page_index"":5,""viewing_time"":8939.899999856949},{""page_index"":6,""viewing_time"":9159.900000095367},{""page_index"":7,""viewing_time"":8364.099999904633},{""page_index"":8,""viewing_time"":9200.100000143051},{""page_index"":9,""viewing_time"":5583.799999952316},{""page_index"":10,""viewing_time"":3264.0999999046326},{""page_index"":11,""viewing_time"":16269.900000095367},{""page_index"":12,""viewing_time"":12359.799999952316},{""page_index"":13,""viewing_time"":1520.2000000476837}]","","",""
"","","","","","html-keyboard-response","4","119640","0.0-2.0-0.0-0.0-0.0","38","1","2022-04-05 02:48:59","c79472ad15d8b617a4d57d5bf56a810f","58.11.10.85","Mozilla/5.0 (Windows NT 10.0; Win64; x64) AppleWebKit/537.36 (KHTML, like Gecko) Chrome/99.0.4844.74 Safari/537.36","WebKit","Chrome","99.0.4844.74","Windows","10.0","null","null","","","<p style=""font-size:64px;"">+</p>","P_6_3_O",""
"","","","","","html-keyboard-response","5","120893","0.0-2.0-0.0-0.0-1.0","38","1","2022-04-05 02:48:59","c79472ad15d8b617a4d57d5bf56a810f","58.11.10.85","Mozilla/5.0 (Windows NT 10.0; Win64; x64) AppleWebKit/537.36 (KHTML, like Gecko) Chrome/99.0.4844.74 Safari/537.36","WebKit","Chrome","99.0.4844.74","Windows","10.0","null","null","","","
                        <div class=orange>
                        <div class=""centered"">
                            <p style=""font-size: 24px""><b>53%</b></p>
                        </div>","P_6_3_O",""
"","","","","","html-keyboard-response","6","121295","0.0-2.0-0.0-0.0-0.1","38","1","2022-04-05 02:48:59","c79472ad15d8b617a4d57d5bf56a810f","58.11.10.85","Mozilla/5.0 (Windows NT 10.0; Win64; x64) AppleWebKit/537.36 (KHTML, like Gecko) Chrome/99.0.4844.74 Safari/537.36","WebKit","Chrome","99.0.4844.74","Windows","10.0","null","null","","","<p style=""font-size:64px;"">+</p>","P_6_3_O",""
"","","","","","html-keyboard-response","7","122546","0.0-2.0-0.0-0.0-1.1","38","1","2022-04-05 02:48:59","c79472ad15d8b617a4d57d5bf56a810f","58.11.10.85","Mozilla/5.0 (Windows NT 10.0; Win64; x64) AppleWebKit/537.36 (KHTML, like Gecko) Chrome/99.0.4844.74 Safari/537.36","WebKit","Chrome","99.0.4844.74","Windows","10.0","null","null","","","
                        <div class=orange>
                        <div class=""centered"">
                            <p style=""font-size: 24px""><b>52%</b></p>
                        </div>","P_6_3_O",""
"","","","","","html-keyboard-response","8","122948","0.0-2.0-0.0-0.0-0.2","38","1","2022-04-05 02:48:59","c79472ad15d8b617a4d57d5bf56a810f","58.11.10.85","Mozilla/5.0 (Windows NT 10.0; Win64; x64) AppleWebKit/537.36 (KHTML, like Gecko) Chrome/99.0.4844.74 Safari/537.36","WebKit","Chrome","99.0.4844.74","Windows","10.0","null","null","","","<p style=""font-size:64px;"">+</p>","P_6_3_O",""
"","","","","","html-keyboard-response","9","124200","0.0-2.0-0.0-0.0-1.2","38","1","2022-04-05 02:48:59","c79472ad15d8b617a4d57d5bf56a810f","58.11.10.85","Mozilla/5.0 (Windows NT 10.0; Win64; x64) AppleWebKit/537.36 (KHTML, like Gecko) Chrome/99.0.4844.74 Safari/537.36","WebKit","Chrome","99.0.4844.74","Windows","10.0","null","null","","","
                        <div class=pink>
                        <div class=""centered"">
                            <p style=""font-size: 24px""><b>55%</b></p>
                        </div>","P_6_3_O",""
"","","","","","html-keyboard-response","10","124602","0.0-2.0-0.0-0.0-0.3","38","1","2022-04-05 02:48:59","c79472ad15d8b617a4d57d5bf56a810f","58.11.10.85","Mozilla/5.0 (Windows NT 10.0; Win64; x64) AppleWebKit/537.36 (KHTML, like Gecko) Chrome/99.0.4844.74 Safari/537.36","WebKit","Chrome","99.0.4844.74","Windows","10.0","null","null","","","<p style=""font-size:64px;"">+</p>","P_6_3_O",""
"","","","","","html-keyboard-response","11","125854","0.0-2.0-0.0-0.0-1.3","38","1","2022-04-05 02:48:59","c79472ad15d8b617a4d57d5bf56a810f","58.11.10.85","Mozilla/5.0 (Windows NT 10.0; Win64; x64) AppleWebKit/537.36 (KHTML, like Gecko) Chrome/99.0.4844.74 Safari/537.36","WebKit","Chrome","99.0.4844.74","Windows","10.0","null","null","","","
                        <div class=pink>
                        <div class=""centered"">
                            <p style=""font-size: 24px""><b>55%</b></p>
                        </div>","P_6_3_O",""
"","","","","","html-keyboard-response","12","126256","0.0-2.0-0.0-0.0-0.4","38","1","2022-04-05 02:48:59","c79472ad15d8b617a4d57d5bf56a810f","58.11.10.85","Mozilla/5.0 (Windows NT 10.0; Win64; x64) AppleWebKit/537.36 (KHTML, like Gecko) Chrome/99.0.4844.74 Safari/537.36","WebKit","Chrome","99.0.4844.74","Windows","10.0","null","null","","","<p style=""font-size:64px;"">+</p>","P_6_3_O",""
"","","","","","html-keyboard-response","13","127508","0.0-2.0-0.0-0.0-1.4","38","1","2022-04-05 02:48:59","c79472ad15d8b617a4d57d5bf56a810f","58.11.10.85","Mozilla/5.0 (Windows NT 10.0; Win64; x64) AppleWebKit/537.36 (KHTML, like Gecko) Chrome/99.0.4844.74 Safari/537.36","WebKit","Chrome","99.0.4844.74","Windows","10.0","null","null","","","
                        <div class=pink>
                        <div class=""centered"">
                            <p style=""font-size: 24px""><b>53%</b></p>
                        </div>","P_6_3_O",""
"","","","","","html-keyboard-response","14","127910","0.0-2.0-0.0-0.0-0.5","38","1","2022-04-05 02:48:59","c79472ad15d8b617a4d57d5bf56a810f","58.11.10.85","Mozilla/5.0 (Windows NT 10.0; Win64; x64) AppleWebKit/537.36 (KHTML, like Gecko) Chrome/99.0.4844.74 Safari/537.36","WebKit","Chrome","99.0.4844.74","Windows","10.0","null","null","","","<p style=""font-size:64px;"">+</p>","P_6_3_O",""
"","","","","","html-keyboard-response","15","129161","0.0-2.0-0.0-0.0-1.5","38","1","2022-04-05 02:48:59","c79472ad15d8b617a4d57d5bf56a810f","58.11.10.85","Mozilla/5.0 (Windows NT 10.0; Win64; x64) AppleWebKit/537.36 (KHTML, like Gecko) Chrome/99.0.4844.74 Safari/537.36","WebKit","Chrome","99.0.4844.74","Windows","10.0","null","null","","","
                        <div class=orange>
                        <div class=""centered"">
                            <p style=""font-size: 24px""><b>52%</b></p>
                        </div>","P_6_3_O",""
"","","","","","html-keyboard-response","16","129563","0.0-2.0-0.0-1.0-0.0","38","1","2022-04-05 02:48:59","c79472ad15d8b617a4d57d5bf56a810f","58.11.10.85","Mozilla/5.0 (Windows NT 10.0; Win64; x64) AppleWebKit/537.36 (KHTML, like Gecko) Chrome/99.0.4844.74 Safari/537.36","WebKit","Chrome","99.0.4844.74","Windows","10.0","null","null","","","<p style=""font-size:64px;"">+</p>","P_6_3_O",""
"","","","","","html-keyboard-response","17","130815","0.0-2.0-0.0-1.0-1.0","38","1","2022-04-05 02:48:59","c79472ad15d8b617a4d57d5bf56a810f","58.11.10.85","Mozilla/5.0 (Windows NT 10.0; Win64; x64) AppleWebKit/537.36 (KHTML, like Gecko) Chrome/99.0.4844.74 Safari/537.36","WebKit","Chrome","99.0.4844.74","Windows","10.0","null","null","","","
                        <div class=""orange"">
                        <div class=""centered"">
                            <p style=""font-size: 24px""><b>50%</b></p>
                        </div>","P_6_3_O",""
"","","","","","html-slider-response","18","134430","0.0-2.0-0.0-2.0","38","1","2022-04-05 02:48:59","c79472ad15d8b617a4d57d5bf56a810f","58.11.10.85","Mozilla/5.0 (Windows NT 10.0; Win64; x64) AppleWebKit/537.36 (KHTML, like Gecko) Chrome/99.0.4844.74 Safari/537.36","WebKit","Chrome","99.0.4844.74","Windows","10.0","3614.2999999523163","24","","","<div style=""width: 500px; height: 100px;""><p>Place your bid for more information.</p></div>","infoBid","18"
"","","","","","html-keyboard-response","19","134832","0.0-2.0-0.0-3.0-0.0","38","1","2022-04-05 02:48:59","c79472ad15d8b617a4d57d5bf56a810f","58.11.10.85","Mozilla/5.0 (Windows NT 10.0; Win64; x64) AppleWebKit/537.36 (KHTML, like Gecko) Chrome/99.0.4844.74 Safari/537.36","WebKit","Chrome","99.0.4844.74","Windows","10.0","null","null","","","<p style=""font-size:64px;"">+</p>","P_6_3_O",""
"","","","","","html-keyboard-response","20","136084","0.0-2.0-0.0-3.0-1.0","38","1","2022-04-05 02:48:59","c79472ad15d8b617a4d57d5bf56a810f","58.11.10.85","Mozilla/5.0 (Windows NT 10.0; Win64; x64) AppleWebKit/537.36 (KHTML, like Gecko) Chrome/99.0.4844.74 Safari/537.36","WebKit","Chrome","99.0.4844.74","Windows","10.0","null","null","","","<div class=""grey"">
                <div class=""centered"">
                    <p style=""font-size: 24px""><b>???</b></p>
                </div>","P_6_3_O",""
"","","","","","html-keyboard-response","21","136365","0.0-2.0-0.0-4.0-0.0","38","1","2022-04-05 02:48:59","c79472ad15d8b617a4d57d5bf56a810f","58.11.10.85","Mozilla/5.0 (Windows NT 10.0; Win64; x64) AppleWebKit/537.36 (KHTML, like Gecko) Chrome/99.0.4844.74 Safari/537.36","WebKit","Chrome","99.0.4844.74","Windows","10.0","279.5","j","","","
                      <div class=""row"">

                          <div class=""column"">
                              <div class=""orange""></div>
                              <div class=""leftChoiceText"">
                                  <p style=""font-size: 32px""><b>F</b></p>
                              </div>
                          </div>

                          <div class=""column"">
                              <div class=""pink""></div>
                              <div class=""rightChoiceText"">
                                  <p style=""font-size: 32px""><b>J</b></p>
                              </div>
                          </div>

                      </div>

                      <div class=""centeredTop"">
                          Which colour do you<br>
                          predict will win?
                      </div>","P_6_3_O",""
"","","","","","html-keyboard-response","22","137866","0.0-2.0-0.0-4.0-1.0","38","1","2022-04-05 02:48:59","c79472ad15d8b617a4d57d5bf56a810f","58.11.10.85","Mozilla/5.0 (Windows NT 10.0; Win64; x64) AppleWebKit/537.36 (KHTML, like Gecko) Chrome/99.0.4844.74 Safari/537.36","WebKit","Chrome","99.0.4844.74","Windows","10.0","null","null","","","<p style=""font-size:64px;"">+</p>","P_6_3_O",""
"","","","","","html-keyboard-response","23","138269","0.0-2.0-1.0-0.0-0.0","38","1","2022-04-05 02:48:59","c79472ad15d8b617a4d57d5bf56a810f","58.11.10.85","Mozilla/5.0 (Windows NT 10.0; Win64; x64) AppleWebKit/537.36 (KHTML, like Gecko) Chrome/99.0.4844.74 Safari/537.36","WebKit","Chrome","99.0.4844.74","Windows","10.0","null","null","","","<p style=""font-size:64px;"">+</p>","P_6_1_P",""
"","","","","","html-keyboard-response","24","139521","0.0-2.0-1.0-0.0-1.0","38","1","2022-04-05 02:48:59","c79472ad15d8b617a4d57d5bf56a810f","58.11.10.85","Mozilla/5.0 (Windows NT 10.0; Win64; x64) AppleWebKit/537.36 (KHTML, like Gecko) Chrome/99.0.4844.74 Safari/537.36","WebKit","Chrome","99.0.4844.74","Windows","10.0","null","null","","","
                        <div class=orange>
                        <div class=""centered"">
                            <p style=""font-size: 24px""><b>52%</b></p>
                        </div>","P_6_1_P",""
"","","","","","html-keyboard-response","25","139923","0.0-2.0-1.0-0.0-0.1","38","1","2022-04-05 02:48:59","c79472ad15d8b617a4d57d5bf56a810f","58.11.10.85","Mozilla/5.0 (Windows NT 10.0; Win64; x64) AppleWebKit/537.36 (KHTML, like Gecko) Chrome/99.0.4844.74 Safari/537.36","WebKit","Chrome","99.0.4844.74","Windows","10.0","null","null","","","<p style=""font-size:64px;"">+</p>","P_6_1_P",""
"","","","","","html-keyboard-response","26","141174","0.0-2.0-1.0-0.0-1.1","38","1","2022-04-05 02:48:59","c79472ad15d8b617a4d57d5bf56a810f","58.11.10.85","Mozilla/5.0 (Windows NT 10.0; Win64; x64) AppleWebKit/537.36 (KHTML, like Gecko) Chrome/99.0.4844.74 Safari/537.36","WebKit","Chrome","99.0.4844.74","Windows","10.0","null","null","","","
                        <div class=pink>
                        <div class=""centered"">
                            <p style=""font-size: 24px""><b>54%</b></p>
                        </div>","P_6_1_P",""
"","","","","","html-keyboard-response","27","141576","0.0-2.0-1.0-0.0-0.2","38","1","2022-04-05 02:48:59","c79472ad15d8b617a4d57d5bf56a810f","58.11.10.85","Mozilla/5.0 (Windows NT 10.0; Win64; x64) AppleWebKit/537.36 (KHTML, like Gecko) Chrome/99.0.4844.74 Safari/537.36","WebKit","Chrome","99.0.4844.74","Windows","10.0","null","null","","","<p style=""font-size:64px;"">+</p>","P_6_1_P",""
"","","","","","html-keyboard-response","28","142827","0.0-2.0-1.0-0.0-1.2","38","1","2022-04-05 02:48:59","c79472ad15d8b617a4d57d5bf56a810f","58.11.10.85","Mozilla/5.0 (Windows NT 10.0; Win64; x64) AppleWebKit/537.36 (KHTML, like Gecko) Chrome/99.0.4844.74 Safari/537.36","WebKit","Chrome","99.0.4844.74","Windows","10.0","null","null","","","
                        <div class=pink>
                        <div class=""centered"">
                            <p style=""font-size: 24px""><b>53%</b></p>
                        </div>","P_6_1_P",""
"","","","","","html-keyboard-response","29","143229","0.0-2.0-1.0-0.0-0.3","38","1","2022-04-05 02:48:59","c79472ad15d8b617a4d57d5bf56a810f","58.11.10.85","Mozilla/5.0 (Windows NT 10.0; Win64; x64) AppleWebKit/537.36 (KHTML, like Gecko) Chrome/99.0.4844.74 Safari/537.36","WebKit","Chrome","99.0.4844.74","Windows","10.0","null","null","","","<p style=""font-size:64px;"">+</p>","P_6_1_P",""
"","","","","","html-keyboard-response","30","144482","0.0-2.0-1.0-0.0-1.3","38","1","2022-04-05 02:48:59","c79472ad15d8b617a4d57d5bf56a810f","58.11.10.85","Mozilla/5.0 (Windows NT 10.0; Win64; x64) AppleWebKit/537.36 (KHTML, like Gecko) Chrome/99.0.4844.74 Safari/537.36","WebKit","Chrome","99.0.4844.74","Windows","10.0","null","null","","","
                        <div class=orange>
                        <div class=""centered"">
                            <p style=""font-size: 24px""><b>51%</b></p>
                        </div>","P_6_1_P",""
"","","","","","html-keyboard-response","31","144883","0.0-2.0-1.0-0.0-0.4","38","1","2022-04-05 02:48:59","c79472ad15d8b617a4d57d5bf56a810f","58.11.10.85","Mozilla/5.0 (Windows NT 10.0; Win64; x64) AppleWebKit/537.36 (KHTML, like Gecko) Chrome/99.0.4844.74 Safari/537.36","WebKit","Chrome","99.0.4844.74","Windows","10.0","null","null","","","<p style=""font-size:64px;"">+</p>","P_6_1_P",""
"","","","","","html-keyboard-response","32","146136","0.0-2.0-1.0-0.0-1.4","38","1","2022-04-05 02:48:59","c79472ad15d8b617a4d57d5bf56a810f","58.11.10.85","Mozilla/5.0 (Windows NT 10.0; Win64; x64) AppleWebKit/537.36 (KHTML, like Gecko) Chrome/99.0.4844.74 Safari/537.36","WebKit","Chrome","99.0.4844.74","Windows","10.0","null","null","","","
                        <div class=orange>
                        <div class=""centered"">
                            <p style=""font-size: 24px""><b>51%</b></p>
                        </div>","P_6_1_P",""
"","","","","","html-keyboard-response","33","146539","0.0-2.0-1.0-0.0-0.5","38","1","2022-04-05 02:48:59","c79472ad15d8b617a4d57d5bf56a810f","58.11.10.85","Mozilla/5.0 (Windows NT 10.0; Win64; x64) AppleWebKit/537.36 (KHTML, like Gecko) Chrome/99.0.4844.74 Safari/537.36","WebKit","Chrome","99.0.4844.74","Windows","10.0","null","null","","","<p style=""font-size:64px;"">+</p>","P_6_1_P",""
"","","","","","html-keyboard-response","34","147790","0.0-2.0-1.0-0.0-1.5","38","1","2022-04-05 02:48:59","c79472ad15d8b617a4d57d5bf56a810f","58.11.10.85","Mozilla/5.0 (Windows NT 10.0; Win64; x64) AppleWebKit/537.36 (KHTML, like Gecko) Chrome/99.0.4844.74 Safari/537.36","WebKit","Chrome","99.0.4844.74","Windows","10.0","null","null","","","
                        <div class=pink>
                        <div class=""centered"">
                            <p style=""font-size: 24px""><b>53%</b></p>
                        </div>","P_6_1_P",""
"","","","","","html-keyboard-response","35","148191","0.0-2.0-1.0-1.0-0.0","38","1","2022-04-05 02:48:59","c79472ad15d8b617a4d57d5bf56a810f","58.11.10.85","Mozilla/5.0 (Windows NT 10.0; Win64; x64) AppleWebKit/537.36 (KHTML, like Gecko) Chrome/99.0.4844.74 Safari/537.36","WebKit","Chrome","99.0.4844.74","Windows","10.0","null","null","","","<p style=""font-size:64px;"">+</p>","P_6_1_P",""
"","","","","","html-keyboard-response","36","149442","0.0-2.0-1.0-1.0-1.0","38","1","2022-04-05 02:48:59","c79472ad15d8b617a4d57d5bf56a810f","58.11.10.85","Mozilla/5.0 (Windows NT 10.0; Win64; x64) AppleWebKit/537.36 (KHTML, like Gecko) Chrome/99.0.4844.74 Safari/537.36","WebKit","Chrome","99.0.4844.74","Windows","10.0","null","null","","","
                        <div class=""pink"">
                        <div class=""centered"">
                            <p style=""font-size: 24px""><b>50%</b></p>
                        </div>","P_6_1_P",""
"","","","","","html-slider-response","37","152712","0.0-2.0-1.0-2.0","38","1","2022-04-05 02:48:59","c79472ad15d8b617a4d57d5bf56a810f","58.11.10.85","Mozilla/5.0 (Windows NT 10.0; Win64; x64) AppleWebKit/537.36 (KHTML, like Gecko) Chrome/99.0.4844.74 Safari/537.36","WebKit","Chrome","99.0.4844.74","Windows","10.0","3269","16","","","<div style=""width: 500px; height: 100px;""><p>Place your bid for more information.</p></div>","infoBid","26"
"","","","","","html-keyboard-response","38","153114","0.0-2.0-1.0-3.0-0.0","38","1","2022-04-05 02:48:59","c79472ad15d8b617a4d57d5bf56a810f","58.11.10.85","Mozilla/5.0 (Windows NT 10.0; Win64; x64) AppleWebKit/537.36 (KHTML, like Gecko) Chrome/99.0.4844.74 Safari/537.36","WebKit","Chrome","99.0.4844.74","Windows","10.0","null","null","","","<p style=""font-size:64px;"">+</p>","P_6_1_P",""
"","","","","","html-keyboard-response","39","154365","0.0-2.0-1.0-3.0-1.0","38","1","2022-04-05 02:48:59","c79472ad15d8b617a4d57d5bf56a810f","58.11.10.85","Mozilla/5.0 (Windows NT 10.0; Win64; x64) AppleWebKit/537.36 (KHTML, like Gecko) Chrome/99.0.4844.74 Safari/537.36","WebKit","Chrome","99.0.4844.74","Windows","10.0","null","null","","","<div class=pink>
                <div class=""centered"">
                    <p style=""font-size: 24px""><b>51%</b></p>
                </div>","P_6_1_P",""
"","","","","","html-keyboard-response","40","158618","0.0-2.0-1.0-4.0-0.0","38","1","2022-04-05 02:48:59","c79472ad15d8b617a4d57d5bf56a810f","58.11.10.85","Mozilla/5.0 (Windows NT 10.0; Win64; x64) AppleWebKit/537.36 (KHTML, like Gecko) Chrome/99.0.4844.74 Safari/537.36","WebKit","Chrome","99.0.4844.74","Windows","10.0","4251.5","j","","","
                      <div class=""row"">

                          <div class=""column"">
                              <div class=""orange""></div>
                              <div class=""leftChoiceText"">
                                  <p style=""font-size: 32px""><b>F</b></p>
                              </div>
                          </div>

                          <div class=""column"">
                              <div class=""pink""></div>
                              <div class=""rightChoiceText"">
                                  <p style=""font-size: 32px""><b>J</b></p>
                              </div>
                          </div>

                      </div>

                      <div class=""centeredTop"">
                          Which colour do you<br>
                          predict will win?
                      </div>","P_6_1_P",""
"","","","","","html-keyboard-response","41","160119","0.0-2.0-1.0-4.0-1.0","38","1","2022-04-05 02:48:59","c79472ad15d8b617a4d57d5bf56a810f","58.11.10.85","Mozilla/5.0 (Windows NT 10.0; Win64; x64) AppleWebKit/537.36 (KHTML, like Gecko) Chrome/99.0.4844.74 Safari/537.36","WebKit","Chrome","99.0.4844.74","Windows","10.0","null","null","","","<p style=""font-size:64px;"">+</p>","P_6_1_P",""
"","","","","","html-keyboard-response","42","160521","0.0-2.0-2.0-0.0-0.0","38","1","2022-04-05 02:48:59","c79472ad15d8b617a4d57d5bf56a810f","58.11.10.85","Mozilla/5.0 (Windows NT 10.0; Win64; x64) AppleWebKit/537.36 (KHTML, like Gecko) Chrome/99.0.4844.74 Safari/537.36","WebKit","Chrome","99.0.4844.74","Windows","10.0","null","null","","","<p style=""font-size:64px;"">+</p>","P_6_4_P",""
"","","","","","html-keyboard-response","43","161773","0.0-2.0-2.0-0.0-1.0","38","1","2022-04-05 02:48:59","c79472ad15d8b617a4d57d5bf56a810f","58.11.10.85","Mozilla/5.0 (Windows NT 10.0; Win64; x64) AppleWebKit/537.36 (KHTML, like Gecko) Chrome/99.0.4844.74 Safari/537.36","WebKit","Chrome","99.0.4844.74","Windows","10.0","null","null","","","
                        <div class=orange>
                        <div class=""centered"">
                            <p style=""font-size: 24px""><b>53%</b></p>
                        </div>","P_6_4_P",""
"","","","","","html-keyboard-response","44","162175","0.0-2.0-2.0-0.0-0.1","38","1","2022-04-05 02:48:59","c79472ad15d8b617a4d57d5bf56a810f","58.11.10.85","Mozilla/5.0 (Windows NT 10.0; Win64; x64) AppleWebKit/537.36 (KHTML, like Gecko) Chrome/99.0.4844.74 Safari/537.36","WebKit","Chrome","99.0.4844.74","Windows","10.0","null","null","","","<p style=""font-size:64px;"">+</p>","P_6_4_P",""
"","","","","","html-keyboard-response","45","163426","0.0-2.0-2.0-0.0-1.1","38","1","2022-04-05 02:48:59","c79472ad15d8b617a4d57d5bf56a810f","58.11.10.85","Mozilla/5.0 (Windows NT 10.0; Win64; x64) AppleWebKit/537.36 (KHTML, like Gecko) Chrome/99.0.4844.74 Safari/537.36","WebKit","Chrome","99.0.4844.74","Windows","10.0","null","null","","","
                        <div class=pink>
                        <div class=""centered"">
                            <p style=""font-size: 24px""><b>55%</b></p>
                        </div>","P_6_4_P",""
"","","","","","html-keyboard-response","46","163829","0.0-2.0-2.0-0.0-0.2","38","1","2022-04-05 02:48:59","c79472ad15d8b617a4d57d5bf56a810f","58.11.10.85","Mozilla/5.0 (Windows NT 10.0; Win64; x64) AppleWebKit/537.36 (KHTML, like Gecko) Chrome/99.0.4844.74 Safari/537.36","WebKit","Chrome","99.0.4844.74","Windows","10.0","null","null","","","<p style=""font-size:64px;"">+</p>","P_6_4_P",""
"","","","","","html-keyboard-response","47","165081","0.0-2.0-2.0-0.0-1.2","38","1","2022-04-05 02:48:59","c79472ad15d8b617a4d57d5bf56a810f","58.11.10.85","Mozilla/5.0 (Windows NT 10.0; Win64; x64) AppleWebKit/537.36 (KHTML, like Gecko) Chrome/99.0.4844.74 Safari/537.36","WebKit","Chrome","99.0.4844.74","Windows","10.0","null","null","","","
                        <div class=pink>
                        <div class=""centered"">
                            <p style=""font-size: 24px""><b>54%</b></p>
                        </div>","P_6_4_P",""
"","","","","","html-keyboard-response","48","165482","0.0-2.0-2.0-0.0-0.3","38","1","2022-04-05 02:48:59","c79472ad15d8b617a4d57d5bf56a810f","58.11.10.85","Mozilla/5.0 (Windows NT 10.0; Win64; x64) AppleWebKit/537.36 (KHTML, like Gecko) Chrome/99.0.4844.74 Safari/537.36","WebKit","Chrome","99.0.4844.74","Windows","10.0","null","null","","","<p style=""font-size:64px;"">+</p>","P_6_4_P",""
"","","","","","html-keyboard-response","49","166734","0.0-2.0-2.0-0.0-1.3","38","1","2022-04-05 02:48:59","c79472ad15d8b617a4d57d5bf56a810f","58.11.10.85","Mozilla/5.0 (Windows NT 10.0; Win64; x64) AppleWebKit/537.36 (KHTML, like Gecko) Chrome/99.0.4844.74 Safari/537.36","WebKit","Chrome","99.0.4844.74","Windows","10.0","null","null","","","
                        <div class=orange>
                        <div class=""centered"">
                            <p style=""font-size: 24px""><b>52%</b></p>
                        </div>","P_6_4_P",""
"","","","","","html-keyboard-response","50","167136","0.0-2.0-2.0-0.0-0.4","38","1","2022-04-05 02:48:59","c79472ad15d8b617a4d57d5bf56a810f","58.11.10.85","Mozilla/5.0 (Windows NT 10.0; Win64; x64) AppleWebKit/537.36 (KHTML, like Gecko) Chrome/99.0.4844.74 Safari/537.36","WebKit","Chrome","99.0.4844.74","Windows","10.0","null","null","","","<p style=""font-size:64px;"">+</p>","P_6_4_P",""
"","","","","","html-keyboard-response","51","168388","0.0-2.0-2.0-0.0-1.4","38","1","2022-04-05 02:48:59","c79472ad15d8b617a4d57d5bf56a810f","58.11.10.85","Mozilla/5.0 (Windows NT 10.0; Win64; x64) AppleWebKit/537.36 (KHTML, like Gecko) Chrome/99.0.4844.74 Safari/537.36","WebKit","Chrome","99.0.4844.74","Windows","10.0","null","null","","","
                        <div class=orange>
                        <div class=""centered"">
                            <p style=""font-size: 24px""><b>52%</b></p>
                        </div>","P_6_4_P",""
"","","","","","html-keyboard-response","52","168790","0.0-2.0-2.0-0.0-0.5","38","1","2022-04-05 02:48:59","c79472ad15d8b617a4d57d5bf56a810f","58.11.10.85","Mozilla/5.0 (Windows NT 10.0; Win64; x64) AppleWebKit/537.36 (KHTML, like Gecko) Chrome/99.0.4844.74 Safari/537.36","WebKit","Chrome","99.0.4844.74","Windows","10.0","null","null","","","<p style=""font-size:64px;"">+</p>","P_6_4_P",""
"","","","","","html-keyboard-response","53","170041","0.0-2.0-2.0-0.0-1.5","38","1","2022-04-05 02:48:59","c79472ad15d8b617a4d57d5bf56a810f","58.11.10.85","Mozilla/5.0 (Windows NT 10.0; Win64; x64) AppleWebKit/537.36 (KHTML, like Gecko) Chrome/99.0.4844.74 Safari/537.36","WebKit","Chrome","99.0.4844.74","Windows","10.0","null","null","","","
                        <div class=pink>
                        <div class=""centered"">
                            <p style=""font-size: 24px""><b>54%</b></p>
                        </div>","P_6_4_P",""
"","","","","","html-keyboard-response","54","170443","0.0-2.0-2.0-1.0-0.0","38","1","2022-04-05 02:48:59","c79472ad15d8b617a4d57d5bf56a810f","58.11.10.85","Mozilla/5.0 (Windows NT 10.0; Win64; x64) AppleWebKit/537.36 (KHTML, like Gecko) Chrome/99.0.4844.74 Safari/537.36","WebKit","Chrome","99.0.4844.74","Windows","10.0","null","null","","","<p style=""font-size:64px;"">+</p>","P_6_4_P",""
"","","","","","html-keyboard-response","55","171694","0.0-2.0-2.0-1.0-1.0","38","1","2022-04-05 02:48:59","c79472ad15d8b617a4d57d5bf56a810f","58.11.10.85","Mozilla/5.0 (Windows NT 10.0; Win64; x64) AppleWebKit/537.36 (KHTML, like Gecko) Chrome/99.0.4844.74 Safari/537.36","WebKit","Chrome","99.0.4844.74","Windows","10.0","null","null","","","
                        <div class=""pink"">
                        <div class=""centered"">
                            <p style=""font-size: 24px""><b>50%</b></p>
                        </div>","P_6_4_P",""
"","","","","","html-slider-response","56","176088","0.0-2.0-2.0-2.0","38","1","2022-04-05 02:48:59","c79472ad15d8b617a4d57d5bf56a810f","58.11.10.85","Mozilla/5.0 (Windows NT 10.0; Win64; x64) AppleWebKit/537.36 (KHTML, like Gecko) Chrome/99.0.4844.74 Safari/537.36","WebKit","Chrome","99.0.4844.74","Windows","10.0","4392.700000047684","33","","","<div style=""width: 500px; height: 100px;""><p>Place your bid for more information.</p></div>","infoBid","49"
"","","","","","html-keyboard-response","57","176491","0.0-2.0-2.0-3.0-0.0","38","1","2022-04-05 02:48:59","c79472ad15d8b617a4d57d5bf56a810f","58.11.10.85","Mozilla/5.0 (Windows NT 10.0; Win64; x64) AppleWebKit/537.36 (KHTML, like Gecko) Chrome/99.0.4844.74 Safari/537.36","WebKit","Chrome","99.0.4844.74","Windows","10.0","null","null","","","<p style=""font-size:64px;"">+</p>","P_6_4_P",""
"","","","","","html-keyboard-response","58","177742","0.0-2.0-2.0-3.0-1.0","38","1","2022-04-05 02:48:59","c79472ad15d8b617a4d57d5bf56a810f","58.11.10.85","Mozilla/5.0 (Windows NT 10.0; Win64; x64) AppleWebKit/537.36 (KHTML, like Gecko) Chrome/99.0.4844.74 Safari/537.36","WebKit","Chrome","99.0.4844.74","Windows","10.0","null","null","","","<div class=""grey"">
                <div class=""centered"">
                    <p style=""font-size: 24px""><b>???</b></p>
                </div>","P_6_4_P",""
"","","","","","html-keyboard-response","59","179087","0.0-2.0-2.0-4.0-0.0","38","1","2022-04-05 02:48:59","c79472ad15d8b617a4d57d5bf56a810f","58.11.10.85","Mozilla/5.0 (Windows NT 10.0; Win64; x64) AppleWebKit/537.36 (KHTML, like Gecko) Chrome/99.0.4844.74 Safari/537.36","WebKit","Chrome","99.0.4844.74","Windows","10.0","1344.1000001430511","j","","","
                      <div class=""row"">

                          <div class=""column"">
                              <div class=""orange""></div>
                              <div class=""leftChoiceText"">
                                  <p style=""font-size: 32px""><b>F</b></p>
                              </div>
                          </div>

                          <div class=""column"">
                              <div class=""pink""></div>
                              <div class=""rightChoiceText"">
                                  <p style=""font-size: 32px""><b>J</b></p>
                              </div>
                          </div>

                      </div>

                      <div class=""centeredTop"">
                          Which colour do you<br>
                          predict will win?
                      </div>","P_6_4_P",""
"","","","","","html-keyboard-response","60","180588","0.0-2.0-2.0-4.0-1.0","38","1","2022-04-05 02:48:59","c79472ad15d8b617a4d57d5bf56a810f","58.11.10.85","Mozilla/5.0 (Windows NT 10.0; Win64; x64) AppleWebKit/537.36 (KHTML, like Gecko) Chrome/99.0.4844.74 Safari/537.36","WebKit","Chrome","99.0.4844.74","Windows","10.0","null","null","","","<p style=""font-size:64px;"">+</p>","P_6_4_P",""
"","","","","","html-keyboard-response","61","180990","0.0-2.0-3.0-0.0-0.0","38","1","2022-04-05 02:48:59","c79472ad15d8b617a4d57d5bf56a810f","58.11.10.85","Mozilla/5.0 (Windows NT 10.0; Win64; x64) AppleWebKit/537.36 (KHTML, like Gecko) Chrome/99.0.4844.74 Safari/537.36","WebKit","Chrome","99.0.4844.74","Windows","10.0","null","null","","","<p style=""font-size:64px;"">+</p>","P_2_1_O",""
"","","","","","html-keyboard-response","62","182242","0.0-2.0-3.0-0.0-1.0","38","1","2022-04-05 02:48:59","c79472ad15d8b617a4d57d5bf56a810f","58.11.10.85","Mozilla/5.0 (Windows NT 10.0; Win64; x64) AppleWebKit/537.36 (KHTML, like Gecko) Chrome/99.0.4844.74 Safari/537.36","WebKit","Chrome","99.0.4844.74","Windows","10.0","null","null","","","
                        <div class=pink>
                        <div class=""centered"">
                            <p style=""font-size: 24px""><b>54%</b></p>
                        </div>","P_2_1_O",""
"","","","","","html-keyboard-response","63","182644","0.0-2.0-3.0-0.0-0.1","38","1","2022-04-05 02:48:59","c79472ad15d8b617a4d57d5bf56a810f","58.11.10.85","Mozilla/5.0 (Windows NT 10.0; Win64; x64) AppleWebKit/537.36 (KHTML, like Gecko) Chrome/99.0.4844.74 Safari/537.36","WebKit","Chrome","99.0.4844.74","Windows","10.0","null","null","","","<p style=""font-size:64px;"">+</p>","P_2_1_O",""
"","","","","","html-keyboard-response","64","183896","0.0-2.0-3.0-0.0-1.1","38","1","2022-04-05 02:48:59","c79472ad15d8b617a4d57d5bf56a810f","58.11.10.85","Mozilla/5.0 (Windows NT 10.0; Win64; x64) AppleWebKit/537.36 (KHTML, like Gecko) Chrome/99.0.4844.74 Safari/537.36","WebKit","Chrome","99.0.4844.74","Windows","10.0","null","null","","","
                        <div class=orange>
                        <div class=""centered"">
                            <p style=""font-size: 24px""><b>52%</b></p>
                        </div>","P_2_1_O",""
"","","","","","html-keyboard-response","65","184298","0.0-2.0-3.0-0.0-0.2","38","1","2022-04-05 02:48:59","c79472ad15d8b617a4d57d5bf56a810f","58.11.10.85","Mozilla/5.0 (Windows NT 10.0; Win64; x64) AppleWebKit/537.36 (KHTML, like Gecko) Chrome/99.0.4844.74 Safari/537.36","WebKit","Chrome","99.0.4844.74","Windows","10.0","null","null","","","<p style=""font-size:64px;"">+</p>","P_2_1_O",""
"","","","","","html-keyboard-response","66","185550","0.0-2.0-3.0-0.0-1.2","38","1","2022-04-05 02:48:59","c79472ad15d8b617a4d57d5bf56a810f","58.11.10.85","Mozilla/5.0 (Windows NT 10.0; Win64; x64) AppleWebKit/537.36 (KHTML, like Gecko) Chrome/99.0.4844.74 Safari/537.36","WebKit","Chrome","99.0.4844.74","Windows","10.0","null","null","","","
                        <div class=orange>
                        <div class=""centered"">
                            <p style=""font-size: 24px""><b>55%</b></p>
                        </div>","P_2_1_O",""
"","","","","","html-keyboard-response","67","185953","0.0-2.0-3.0-0.0-0.3","38","1","2022-04-05 02:48:59","c79472ad15d8b617a4d57d5bf56a810f","58.11.10.85","Mozilla/5.0 (Windows NT 10.0; Win64; x64) AppleWebKit/537.36 (KHTML, like Gecko) Chrome/99.0.4844.74 Safari/537.36","WebKit","Chrome","99.0.4844.74","Windows","10.0","null","null","","","<p style=""font-size:64px;"">+</p>","P_2_1_O",""
"","","","","","html-keyboard-response","68","187205","0.0-2.0-3.0-0.0-1.3","38","1","2022-04-05 02:48:59","c79472ad15d8b617a4d57d5bf56a810f","58.11.10.85","Mozilla/5.0 (Windows NT 10.0; Win64; x64) AppleWebKit/537.36 (KHTML, like Gecko) Chrome/99.0.4844.74 Safari/537.36","WebKit","Chrome","99.0.4844.74","Windows","10.0","null","null","","","
                        <div class=orange>
                        <div class=""centered"">
                            <p style=""font-size: 24px""><b>51%</b></p>
                        </div>","P_2_1_O",""
"","","","","","html-keyboard-response","69","187607","0.0-2.0-3.0-0.0-0.4","38","1","2022-04-05 02:48:59","c79472ad15d8b617a4d57d5bf56a810f","58.11.10.85","Mozilla/5.0 (Windows NT 10.0; Win64; x64) AppleWebKit/537.36 (KHTML, like Gecko) Chrome/99.0.4844.74 Safari/537.36","WebKit","Chrome","99.0.4844.74","Windows","10.0","null","null","","","<p style=""font-size:64px;"">+</p>","P_2_1_O",""
"","","","","","html-keyboard-response","70","188858","0.0-2.0-3.0-0.0-1.4","38","1","2022-04-05 02:48:59","c79472ad15d8b617a4d57d5bf56a810f","58.11.10.85","Mozilla/5.0 (Windows NT 10.0; Win64; x64) AppleWebKit/537.36 (KHTML, like Gecko) Chrome/99.0.4844.74 Safari/537.36","WebKit","Chrome","99.0.4844.74","Windows","10.0","null","null","","","
                        <div class=pink>
                        <div class=""centered"">
                            <p style=""font-size: 24px""><b>52%</b></p>
                        </div>","P_2_1_O",""
"","","","","","html-keyboard-response","71","189260","0.0-2.0-3.0-0.0-0.5","38","1","2022-04-05 02:48:59","c79472ad15d8b617a4d57d5bf56a810f","58.11.10.85","Mozilla/5.0 (Windows NT 10.0; Win64; x64) AppleWebKit/537.36 (KHTML, like Gecko) Chrome/99.0.4844.74 Safari/537.36","WebKit","Chrome","99.0.4844.74","Windows","10.0","null","null","","","<p style=""font-size:64px;"">+</p>","P_2_1_O",""
"","","","","","html-keyboard-response","72","190513","0.0-2.0-3.0-0.0-1.5","38","1","2022-04-05 02:48:59","c79472ad15d8b617a4d57d5bf56a810f","58.11.10.85","Mozilla/5.0 (Windows NT 10.0; Win64; x64) AppleWebKit/537.36 (KHTML, like Gecko) Chrome/99.0.4844.74 Safari/537.36","WebKit","Chrome","99.0.4844.74","Windows","10.0","null","null","","","
                        <div class=pink>
                        <div class=""centered"">
                            <p style=""font-size: 24px""><b>54%</b></p>
                        </div>","P_2_1_O",""
"","","","","","html-keyboard-response","73","190915","0.0-2.0-3.0-1.0-0.0","38","1","2022-04-05 02:48:59","c79472ad15d8b617a4d57d5bf56a810f","58.11.10.85","Mozilla/5.0 (Windows NT 10.0; Win64; x64) AppleWebKit/537.36 (KHTML, like Gecko) Chrome/99.0.4844.74 Safari/537.36","WebKit","Chrome","99.0.4844.74","Windows","10.0","null","null","","","<p style=""font-size:64px;"">+</p>","P_2_1_O",""
"","","","","","html-keyboard-response","74","192167","0.0-2.0-3.0-1.0-1.0","38","1","2022-04-05 02:48:59","c79472ad15d8b617a4d57d5bf56a810f","58.11.10.85","Mozilla/5.0 (Windows NT 10.0; Win64; x64) AppleWebKit/537.36 (KHTML, like Gecko) Chrome/99.0.4844.74 Safari/537.36","WebKit","Chrome","99.0.4844.74","Windows","10.0","null","null","","","
                        <div class=""orange"">
                        <div class=""centered"">
                            <p style=""font-size: 24px""><b>50%</b></p>
                        </div>","P_2_1_O",""
"","","","","","html-slider-response","75","198614","0.0-2.0-3.0-2.0","38","1","2022-04-05 02:48:59","c79472ad15d8b617a4d57d5bf56a810f","58.11.10.85","Mozilla/5.0 (Windows NT 10.0; Win64; x64) AppleWebKit/537.36 (KHTML, like Gecko) Chrome/99.0.4844.74 Safari/537.36","WebKit","Chrome","99.0.4844.74","Windows","10.0","6446.299999952316","18","","","<div style=""width: 500px; height: 100px;""><p>Place your bid for more information.</p></div>","infoBid","24"
"","","","","","html-keyboard-response","76","199017","0.0-2.0-3.0-3.0-0.0","38","1","2022-04-05 02:48:59","c79472ad15d8b617a4d57d5bf56a810f","58.11.10.85","Mozilla/5.0 (Windows NT 10.0; Win64; x64) AppleWebKit/537.36 (KHTML, like Gecko) Chrome/99.0.4844.74 Safari/537.36","WebKit","Chrome","99.0.4844.74","Windows","10.0","null","null","","","<p style=""font-size:64px;"">+</p>","P_2_1_O",""
"","","","","","html-keyboard-response","77","200270","0.0-2.0-3.0-3.0-1.0","38","1","2022-04-05 02:48:59","c79472ad15d8b617a4d57d5bf56a810f","58.11.10.85","Mozilla/5.0 (Windows NT 10.0; Win64; x64) AppleWebKit/537.36 (KHTML, like Gecko) Chrome/99.0.4844.74 Safari/537.36","WebKit","Chrome","99.0.4844.74","Windows","10.0","null","null","","","<div class=""grey"">
                <div class=""centered"">
                    <p style=""font-size: 24px""><b>???</b></p>
                </div>","P_2_1_O",""
"","","","","","html-keyboard-response","78","201046","0.0-2.0-3.0-4.0-0.0","38","1","2022-04-05 02:48:59","c79472ad15d8b617a4d57d5bf56a810f","58.11.10.85","Mozilla/5.0 (Windows NT 10.0; Win64; x64) AppleWebKit/537.36 (KHTML, like Gecko) Chrome/99.0.4844.74 Safari/537.36","WebKit","Chrome","99.0.4844.74","Windows","10.0","775.7999999523163","f","","","
                      <div class=""row"">

                          <div class=""column"">
                              <div class=""orange""></div>
                              <div class=""leftChoiceText"">
                                  <p style=""font-size: 32px""><b>F</b></p>
                              </div>
                          </div>

                          <div class=""column"">
                              <div class=""pink""></div>
                              <div class=""rightChoiceText"">
                                  <p style=""font-size: 32px""><b>J</b></p>
                              </div>
                          </div>

                      </div>

                      <div class=""centeredTop"">
                          Which colour do you<br>
                          predict will win?
                      </div>","P_2_1_O",""
"","","","","","html-keyboard-response","79","202549","0.0-2.0-3.0-4.0-1.0","38","1","2022-04-05 02:48:59","c79472ad15d8b617a4d57d5bf56a810f","58.11.10.85","Mozilla/5.0 (Windows NT 10.0; Win64; x64) AppleWebKit/537.36 (KHTML, like Gecko) Chrome/99.0.4844.74 Safari/537.36","WebKit","Chrome","99.0.4844.74","Windows","10.0","null","null","","","<p style=""font-size:64px;"">+</p>","P_2_1_O",""
"","","","","","html-keyboard-response","80","202951","0.0-2.0-4.0-0.0-0.0","38","1","2022-04-05 02:48:59","c79472ad15d8b617a4d57d5bf56a810f","58.11.10.85","Mozilla/5.0 (Windows NT 10.0; Win64; x64) AppleWebKit/537.36 (KHTML, like Gecko) Chrome/99.0.4844.74 Safari/537.36","WebKit","Chrome","99.0.4844.74","Windows","10.0","null","null","","","<p style=""font-size:64px;"">+</p>","P_4_2_O",""
"","","","","","html-keyboard-response","81","204202","0.0-2.0-4.0-0.0-1.0","38","1","2022-04-05 02:48:59","c79472ad15d8b617a4d57d5bf56a810f","58.11.10.85","Mozilla/5.0 (Windows NT 10.0; Win64; x64) AppleWebKit/537.36 (KHTML, like Gecko) Chrome/99.0.4844.74 Safari/537.36","WebKit","Chrome","99.0.4844.74","Windows","10.0","null","null","","","
                        <div class=pink>
                        <div class=""centered"">
                            <p style=""font-size: 24px""><b>51%</b></p>
                        </div>","P_4_2_O",""
"","","","","","html-keyboard-response","82","204604","0.0-2.0-4.0-0.0-0.1","38","1","2022-04-05 02:48:59","c79472ad15d8b617a4d57d5bf56a810f","58.11.10.85","Mozilla/5.0 (Windows NT 10.0; Win64; x64) AppleWebKit/537.36 (KHTML, like Gecko) Chrome/99.0.4844.74 Safari/537.36","WebKit","Chrome","99.0.4844.74","Windows","10.0","null","null","","","<p style=""font-size:64px;"">+</p>","P_4_2_O",""
"","","","","","html-keyboard-response","83","205855","0.0-2.0-4.0-0.0-1.1","38","1","2022-04-05 02:48:59","c79472ad15d8b617a4d57d5bf56a810f","58.11.10.85","Mozilla/5.0 (Windows NT 10.0; Win64; x64) AppleWebKit/537.36 (KHTML, like Gecko) Chrome/99.0.4844.74 Safari/537.36","WebKit","Chrome","99.0.4844.74","Windows","10.0","null","null","","","
                        <div class=orange>
                        <div class=""centered"">
                            <p style=""font-size: 24px""><b>52%</b></p>
                        </div>","P_4_2_O",""
"","","","","","html-keyboard-response","84","206257","0.0-2.0-4.0-0.0-0.2","38","1","2022-04-05 02:48:59","c79472ad15d8b617a4d57d5bf56a810f","58.11.10.85","Mozilla/5.0 (Windows NT 10.0; Win64; x64) AppleWebKit/537.36 (KHTML, like Gecko) Chrome/99.0.4844.74 Safari/537.36","WebKit","Chrome","99.0.4844.74","Windows","10.0","null","null","","","<p style=""font-size:64px;"">+</p>","P_4_2_O",""
"","","","","","html-keyboard-response","85","207509","0.0-2.0-4.0-0.0-1.2","38","1","2022-04-05 02:48:59","c79472ad15d8b617a4d57d5bf56a810f","58.11.10.85","Mozilla/5.0 (Windows NT 10.0; Win64; x64) AppleWebKit/537.36 (KHTML, like Gecko) Chrome/99.0.4844.74 Safari/537.36","WebKit","Chrome","99.0.4844.74","Windows","10.0","null","null","","","
                        <div class=pink>
                        <div class=""centered"">
                            <p style=""font-size: 24px""><b>54%</b></p>
                        </div>","P_4_2_O",""
"","","","","","html-keyboard-response","86","207910","0.0-2.0-4.0-0.0-0.3","38","1","2022-04-05 02:48:59","c79472ad15d8b617a4d57d5bf56a810f","58.11.10.85","Mozilla/5.0 (Windows NT 10.0; Win64; x64) AppleWebKit/537.36 (KHTML, like Gecko) Chrome/99.0.4844.74 Safari/537.36","WebKit","Chrome","99.0.4844.74","Windows","10.0","null","null","","","<p style=""font-size:64px;"">+</p>","P_4_2_O",""
"","","","","","html-keyboard-response","87","209162","0.0-2.0-4.0-0.0-1.3","38","1","2022-04-05 02:48:59","c79472ad15d8b617a4d57d5bf56a810f","58.11.10.85","Mozilla/5.0 (Windows NT 10.0; Win64; x64) AppleWebKit/537.36 (KHTML, like Gecko) Chrome/99.0.4844.74 Safari/537.36","WebKit","Chrome","99.0.4844.74","Windows","10.0","null","null","","","
                        <div class=orange>
                        <div class=""centered"">
                            <p style=""font-size: 24px""><b>51%</b></p>
                        </div>","P_4_2_O",""
"","","","","","html-keyboard-response","88","209564","0.0-2.0-4.0-0.0-0.4","38","1","2022-04-05 02:48:59","c79472ad15d8b617a4d57d5bf56a810f","58.11.10.85","Mozilla/5.0 (Windows NT 10.0; Win64; x64) AppleWebKit/537.36 (KHTML, like Gecko) Chrome/99.0.4844.74 Safari/537.36","WebKit","Chrome","99.0.4844.74","Windows","10.0","null","null","","","<p style=""font-size:64px;"">+</p>","P_4_2_O",""
"","","","","","html-keyboard-response","89","210816","0.0-2.0-4.0-0.0-1.4","38","1","2022-04-05 02:48:59","c79472ad15d8b617a4d57d5bf56a810f","58.11.10.85","Mozilla/5.0 (Windows NT 10.0; Win64; x64) AppleWebKit/537.36 (KHTML, like Gecko) Chrome/99.0.4844.74 Safari/537.36","WebKit","Chrome","99.0.4844.74","Windows","10.0","null","null","","","
                        <div class=orange>
                        <div class=""centered"">
                            <p style=""font-size: 24px""><b>52%</b></p>
                        </div>","P_4_2_O",""
"","","","","","html-keyboard-response","90","211218","0.0-2.0-4.0-0.0-0.5","38","1","2022-04-05 02:48:59","c79472ad15d8b617a4d57d5bf56a810f","58.11.10.85","Mozilla/5.0 (Windows NT 10.0; Win64; x64) AppleWebKit/537.36 (KHTML, like Gecko) Chrome/99.0.4844.74 Safari/537.36","WebKit","Chrome","99.0.4844.74","Windows","10.0","null","null","","","<p style=""font-size:64px;"">+</p>","P_4_2_O",""
"","","","","","html-keyboard-response","91","212470","0.0-2.0-4.0-0.0-1.5","38","1","2022-04-05 02:48:59","c79472ad15d8b617a4d57d5bf56a810f","58.11.10.85","Mozilla/5.0 (Windows NT 10.0; Win64; x64) AppleWebKit/537.36 (KHTML, like Gecko) Chrome/99.0.4844.74 Safari/537.36","WebKit","Chrome","99.0.4844.74","Windows","10.0","null","null","","","
                        <div class=pink>
                        <div class=""centered"">
                            <p style=""font-size: 24px""><b>54%</b></p>
                        </div>","P_4_2_O",""
"","","","","","html-keyboard-response","92","212871","0.0-2.0-4.0-1.0-0.0","38","1","2022-04-05 02:48:59","c79472ad15d8b617a4d57d5bf56a810f","58.11.10.85","Mozilla/5.0 (Windows NT 10.0; Win64; x64) AppleWebKit/537.36 (KHTML, like Gecko) Chrome/99.0.4844.74 Safari/537.36","WebKit","Chrome","99.0.4844.74","Windows","10.0","null","null","","","<p style=""font-size:64px;"">+</p>","P_4_2_O",""
"","","","","","html-keyboard-response","93","214122","0.0-2.0-4.0-1.0-1.0","38","1","2022-04-05 02:48:59","c79472ad15d8b617a4d57d5bf56a810f","58.11.10.85","Mozilla/5.0 (Windows NT 10.0; Win64; x64) AppleWebKit/537.36 (KHTML, like Gecko) Chrome/99.0.4844.74 Safari/537.36","WebKit","Chrome","99.0.4844.74","Windows","10.0","null","null","","","
                        <div class=""orange"">
                        <div class=""centered"">
                            <p style=""font-size: 24px""><b>50%</b></p>
                        </div>","P_4_2_O",""
"","","","","","html-slider-response","94","219926","0.0-2.0-4.0-2.0","38","1","2022-04-05 02:48:59","c79472ad15d8b617a4d57d5bf56a810f","58.11.10.85","Mozilla/5.0 (Windows NT 10.0; Win64; x64) AppleWebKit/537.36 (KHTML, like Gecko) Chrome/99.0.4844.74 Safari/537.36","WebKit","Chrome","99.0.4844.74","Windows","10.0","5802.700000047684","26","","","<div style=""width: 500px; height: 100px;""><p>Place your bid for more information.</p></div>","infoBid","49"
"","","","","","html-keyboard-response","95","220329","0.0-2.0-4.0-3.0-0.0","38","1","2022-04-05 02:48:59","c79472ad15d8b617a4d57d5bf56a810f","58.11.10.85","Mozilla/5.0 (Windows NT 10.0; Win64; x64) AppleWebKit/537.36 (KHTML, like Gecko) Chrome/99.0.4844.74 Safari/537.36","WebKit","Chrome","99.0.4844.74","Windows","10.0","null","null","","","<p style=""font-size:64px;"">+</p>","P_4_2_O",""
"","","","","","html-keyboard-response","96","221580","0.0-2.0-4.0-3.0-1.0","38","1","2022-04-05 02:48:59","c79472ad15d8b617a4d57d5bf56a810f","58.11.10.85","Mozilla/5.0 (Windows NT 10.0; Win64; x64) AppleWebKit/537.36 (KHTML, like Gecko) Chrome/99.0.4844.74 Safari/537.36","WebKit","Chrome","99.0.4844.74","Windows","10.0","null","null","","","<div class=orange>
                <div class=""centered"">
                    <p style=""font-size: 24px""><b>51%</b></p>
                </div>","P_4_2_O",""
"","","","","","html-keyboard-response","97","228564","0.0-2.0-4.0-4.0-0.0","38","1","2022-04-05 02:48:59","c79472ad15d8b617a4d57d5bf56a810f","58.11.10.85","Mozilla/5.0 (Windows NT 10.0; Win64; x64) AppleWebKit/537.36 (KHTML, like Gecko) Chrome/99.0.4844.74 Safari/537.36","WebKit","Chrome","99.0.4844.74","Windows","10.0","6984.099999904633","j","","","
                      <div class=""row"">

                          <div class=""column"">
                              <div class=""orange""></div>
                              <div class=""leftChoiceText"">
                                  <p style=""font-size: 32px""><b>F</b></p>
                              </div>
                          </div>

                          <div class=""column"">
                              <div class=""pink""></div>
                              <div class=""rightChoiceText"">
                                  <p style=""font-size: 32px""><b>J</b></p>
                              </div>
                          </div>

                      </div>

                      <div class=""centeredTop"">
                          Which colour do you<br>
                          predict will win?
                      </div>","P_4_2_O",""
"","","","","","html-keyboard-response","98","230067","0.0-2.0-4.0-4.0-1.0","38","1","2022-04-05 02:48:59","c79472ad15d8b617a4d57d5bf56a810f","58.11.10.85","Mozilla/5.0 (Windows NT 10.0; Win64; x64) AppleWebKit/537.36 (KHTML, like Gecko) Chrome/99.0.4844.74 Safari/537.36","WebKit","Chrome","99.0.4844.74","Windows","10.0","null","null","","","<p style=""font-size:64px;"">+</p>","P_4_2_O",""
"","","","","","html-keyboard-response","99","230469","0.0-2.0-5.0-0.0-0.0","38","1","2022-04-05 02:48:59","c79472ad15d8b617a4d57d5bf56a810f","58.11.10.85","Mozilla/5.0 (Windows NT 10.0; Win64; x64) AppleWebKit/537.36 (KHTML, like Gecko) Chrome/99.0.4844.74 Safari/537.36","WebKit","Chrome","99.0.4844.74","Windows","10.0","null","null","","","<p style=""font-size:64px;"">+</p>","P_2_2_O",""
"","","","","","html-keyboard-response","100","231721","0.0-2.0-5.0-0.0-1.0","38","1","2022-04-05 02:48:59","c79472ad15d8b617a4d57d5bf56a810f","58.11.10.85","Mozilla/5.0 (Windows NT 10.0; Win64; x64) AppleWebKit/537.36 (KHTML, like Gecko) Chrome/99.0.4844.74 Safari/537.36","WebKit","Chrome","99.0.4844.74","Windows","10.0","null","null","","","
                        <div class=orange>
                        <div class=""centered"">
                            <p style=""font-size: 24px""><b>54%</b></p>
                        </div>","P_2_2_O",""
"","","","","","html-keyboard-response","101","232123","0.0-2.0-5.0-0.0-0.1","38","1","2022-04-05 02:48:59","c79472ad15d8b617a4d57d5bf56a810f","58.11.10.85","Mozilla/5.0 (Windows NT 10.0; Win64; x64) AppleWebKit/537.36 (KHTML, like Gecko) Chrome/99.0.4844.74 Safari/537.36","WebKit","Chrome","99.0.4844.74","Windows","10.0","null","null","","","<p style=""font-size:64px;"">+</p>","P_2_2_O",""
"","","","","","html-keyboard-response","102","233375","0.0-2.0-5.0-0.0-1.1","38","1","2022-04-05 02:48:59","c79472ad15d8b617a4d57d5bf56a810f","58.11.10.85","Mozilla/5.0 (Windows NT 10.0; Win64; x64) AppleWebKit/537.36 (KHTML, like Gecko) Chrome/99.0.4844.74 Safari/537.36","WebKit","Chrome","99.0.4844.74","Windows","10.0","null","null","","","
                        <div class=orange>
                        <div class=""centered"">
                            <p style=""font-size: 24px""><b>52%</b></p>
                        </div>","P_2_2_O",""
"","","","","","html-keyboard-response","103","233777","0.0-2.0-5.0-0.0-0.2","38","1","2022-04-05 02:48:59","c79472ad15d8b617a4d57d5bf56a810f","58.11.10.85","Mozilla/5.0 (Windows NT 10.0; Win64; x64) AppleWebKit/537.36 (KHTML, like Gecko) Chrome/99.0.4844.74 Safari/537.36","WebKit","Chrome","99.0.4844.74","Windows","10.0","null","null","","","<p style=""font-size:64px;"">+</p>","P_2_2_O",""
"","","","","","html-keyboard-response","104","235028","0.0-2.0-5.0-0.0-1.2","38","1","2022-04-05 02:48:59","c79472ad15d8b617a4d57d5bf56a810f","58.11.10.85","Mozilla/5.0 (Windows NT 10.0; Win64; x64) AppleWebKit/537.36 (KHTML, like Gecko) Chrome/99.0.4844.74 Safari/537.36","WebKit","Chrome","99.0.4844.74","Windows","10.0","null","null","","","
                        <div class=orange>
                        <div class=""centered"">
                            <p style=""font-size: 24px""><b>52%</b></p>
                        </div>","P_2_2_O",""
"","","","","","html-keyboard-response","105","235431","0.0-2.0-5.0-0.0-0.3","38","1","2022-04-05 02:48:59","c79472ad15d8b617a4d57d5bf56a810f","58.11.10.85","Mozilla/5.0 (Windows NT 10.0; Win64; x64) AppleWebKit/537.36 (KHTML, like Gecko) Chrome/99.0.4844.74 Safari/537.36","WebKit","Chrome","99.0.4844.74","Windows","10.0","null","null","","","<p style=""font-size:64px;"">+</p>","P_2_2_O",""
"","","","","","html-keyboard-response","106","236683","0.0-2.0-5.0-0.0-1.3","38","1","2022-04-05 02:48:59","c79472ad15d8b617a4d57d5bf56a810f","58.11.10.85","Mozilla/5.0 (Windows NT 10.0; Win64; x64) AppleWebKit/537.36 (KHTML, like Gecko) Chrome/99.0.4844.74 Safari/537.36","WebKit","Chrome","99.0.4844.74","Windows","10.0","null","null","","","
                        <div class=pink>
                        <div class=""centered"">
                            <p style=""font-size: 24px""><b>55%</b></p>
                        </div>","P_2_2_O",""
"","","","","","html-keyboard-response","107","237084","0.0-2.0-5.0-0.0-0.4","38","1","2022-04-05 02:48:59","c79472ad15d8b617a4d57d5bf56a810f","58.11.10.85","Mozilla/5.0 (Windows NT 10.0; Win64; x64) AppleWebKit/537.36 (KHTML, like Gecko) Chrome/99.0.4844.74 Safari/537.36","WebKit","Chrome","99.0.4844.74","Windows","10.0","null","null","","","<p style=""font-size:64px;"">+</p>","P_2_2_O",""
"","","","","","html-keyboard-response","108","238336","0.0-2.0-5.0-0.0-1.4","38","1","2022-04-05 02:48:59","c79472ad15d8b617a4d57d5bf56a810f","58.11.10.85","Mozilla/5.0 (Windows NT 10.0; Win64; x64) AppleWebKit/537.36 (KHTML, like Gecko) Chrome/99.0.4844.74 Safari/537.36","WebKit","Chrome","99.0.4844.74","Windows","10.0","null","null","","","
                        <div class=pink>
                        <div class=""centered"">
                            <p style=""font-size: 24px""><b>53%</b></p>
                        </div>","P_2_2_O",""
"","","","","","html-keyboard-response","109","238738","0.0-2.0-5.0-0.0-0.5","38","1","2022-04-05 02:48:59","c79472ad15d8b617a4d57d5bf56a810f","58.11.10.85","Mozilla/5.0 (Windows NT 10.0; Win64; x64) AppleWebKit/537.36 (KHTML, like Gecko) Chrome/99.0.4844.74 Safari/537.36","WebKit","Chrome","99.0.4844.74","Windows","10.0","null","null","","","<p style=""font-size:64px;"">+</p>","P_2_2_O",""
"","","","","","html-keyboard-response","110","239990","0.0-2.0-5.0-0.0-1.5","38","1","2022-04-05 02:48:59","c79472ad15d8b617a4d57d5bf56a810f","58.11.10.85","Mozilla/5.0 (Windows NT 10.0; Win64; x64) AppleWebKit/537.36 (KHTML, like Gecko) Chrome/99.0.4844.74 Safari/537.36","WebKit","Chrome","99.0.4844.74","Windows","10.0","null","null","","","
                        <div class=pink>
                        <div class=""centered"">
                            <p style=""font-size: 24px""><b>52%</b></p>
                        </div>","P_2_2_O",""
"","","","","","html-keyboard-response","111","240393","0.0-2.0-5.0-1.0-0.0","38","1","2022-04-05 02:48:59","c79472ad15d8b617a4d57d5bf56a810f","58.11.10.85","Mozilla/5.0 (Windows NT 10.0; Win64; x64) AppleWebKit/537.36 (KHTML, like Gecko) Chrome/99.0.4844.74 Safari/537.36","WebKit","Chrome","99.0.4844.74","Windows","10.0","null","null","","","<p style=""font-size:64px;"">+</p>","P_2_2_O",""
"","","","","","html-keyboard-response","112","241644","0.0-2.0-5.0-1.0-1.0","38","1","2022-04-05 02:48:59","c79472ad15d8b617a4d57d5bf56a810f","58.11.10.85","Mozilla/5.0 (Windows NT 10.0; Win64; x64) AppleWebKit/537.36 (KHTML, like Gecko) Chrome/99.0.4844.74 Safari/537.36","WebKit","Chrome","99.0.4844.74","Windows","10.0","null","null","","","
                        <div class=""orange"">
                        <div class=""centered"">
                            <p style=""font-size: 24px""><b>50%</b></p>
                        </div>","P_2_2_O",""
"","","","","","html-slider-response","113","244720","0.0-2.0-5.0-2.0","38","1","2022-04-05 02:48:59","c79472ad15d8b617a4d57d5bf56a810f","58.11.10.85","Mozilla/5.0 (Windows NT 10.0; Win64; x64) AppleWebKit/537.36 (KHTML, like Gecko) Chrome/99.0.4844.74 Safari/537.36","WebKit","Chrome","99.0.4844.74","Windows","10.0","3074.7000000476837","22","","","<div style=""width: 500px; height: 100px;""><p>Place your bid for more information.</p></div>","infoBid","29"
"","","","","","html-keyboard-response","114","245121","0.0-2.0-5.0-3.0-0.0","38","1","2022-04-05 02:48:59","c79472ad15d8b617a4d57d5bf56a810f","58.11.10.85","Mozilla/5.0 (Windows NT 10.0; Win64; x64) AppleWebKit/537.36 (KHTML, like Gecko) Chrome/99.0.4844.74 Safari/537.36","WebKit","Chrome","99.0.4844.74","Windows","10.0","null","null","","","<p style=""font-size:64px;"">+</p>","P_2_2_O",""
"","","","","","html-keyboard-response","115","246373","0.0-2.0-5.0-3.0-1.0","38","1","2022-04-05 02:48:59","c79472ad15d8b617a4d57d5bf56a810f","58.11.10.85","Mozilla/5.0 (Windows NT 10.0; Win64; x64) AppleWebKit/537.36 (KHTML, like Gecko) Chrome/99.0.4844.74 Safari/537.36","WebKit","Chrome","99.0.4844.74","Windows","10.0","null","null","","","<div class=orange>
                <div class=""centered"">
                    <p style=""font-size: 24px""><b>52%</b></p>
                </div>","P_2_2_O",""
"","","","","","html-keyboard-response","116","247730","0.0-2.0-5.0-4.0-0.0","38","1","2022-04-05 02:48:59","c79472ad15d8b617a4d57d5bf56a810f","58.11.10.85","Mozilla/5.0 (Windows NT 10.0; Win64; x64) AppleWebKit/537.36 (KHTML, like Gecko) Chrome/99.0.4844.74 Safari/537.36","WebKit","Chrome","99.0.4844.74","Windows","10.0","1356.2999999523163","j","","","
                      <div class=""row"">

                          <div class=""column"">
                              <div class=""orange""></div>
                              <div class=""leftChoiceText"">
                                  <p style=""font-size: 32px""><b>F</b></p>
                              </div>
                          </div>

                          <div class=""column"">
                              <div class=""pink""></div>
                              <div class=""rightChoiceText"">
                                  <p style=""font-size: 32px""><b>J</b></p>
                              </div>
                          </div>

                      </div>

                      <div class=""centeredTop"">
                          Which colour do you<br>
                          predict will win?
                      </div>","P_2_2_O",""
"","","","","","html-keyboard-response","117","249231","0.0-2.0-5.0-4.0-1.0","38","1","2022-04-05 02:48:59","c79472ad15d8b617a4d57d5bf56a810f","58.11.10.85","Mozilla/5.0 (Windows NT 10.0; Win64; x64) AppleWebKit/537.36 (KHTML, like Gecko) Chrome/99.0.4844.74 Safari/537.36","WebKit","Chrome","99.0.4844.74","Windows","10.0","null","null","","","<p style=""font-size:64px;"">+</p>","P_2_2_O",""
"","","","","","html-keyboard-response","118","249634","0.0-2.0-6.0-0.0-0.0","38","1","2022-04-05 02:48:59","c79472ad15d8b617a4d57d5bf56a810f","58.11.10.85","Mozilla/5.0 (Windows NT 10.0; Win64; x64) AppleWebKit/537.36 (KHTML, like Gecko) Chrome/99.0.4844.74 Safari/537.36","WebKit","Chrome","99.0.4844.74","Windows","10.0","null","null","","","<p style=""font-size:64px;"">+</p>","O_6_1_O",""
"","","","","","html-keyboard-response","119","250886","0.0-2.0-6.0-0.0-1.0","38","1","2022-04-05 02:48:59","c79472ad15d8b617a4d57d5bf56a810f","58.11.10.85","Mozilla/5.0 (Windows NT 10.0; Win64; x64) AppleWebKit/537.36 (KHTML, like Gecko) Chrome/99.0.4844.74 Safari/537.36","WebKit","Chrome","99.0.4844.74","Windows","10.0","null","null","","","
                        <div class=pink>
                        <div class=""centered"">
                            <p style=""font-size: 24px""><b>52%</b></p>
                        </div>","O_6_1_O",""
"","","","","","html-keyboard-response","120","251288","0.0-2.0-6.0-0.0-0.1","38","1","2022-04-05 02:48:59","c79472ad15d8b617a4d57d5bf56a810f","58.11.10.85","Mozilla/5.0 (Windows NT 10.0; Win64; x64) AppleWebKit/537.36 (KHTML, like Gecko) Chrome/99.0.4844.74 Safari/537.36","WebKit","Chrome","99.0.4844.74","Windows","10.0","null","null","","","<p style=""font-size:64px;"">+</p>","O_6_1_O",""
"","","","","","html-keyboard-response","121","252539","0.0-2.0-6.0-0.0-1.1","38","1","2022-04-05 02:48:59","c79472ad15d8b617a4d57d5bf56a810f","58.11.10.85","Mozilla/5.0 (Windows NT 10.0; Win64; x64) AppleWebKit/537.36 (KHTML, like Gecko) Chrome/99.0.4844.74 Safari/537.36","WebKit","Chrome","99.0.4844.74","Windows","10.0","null","null","","","
                        <div class=orange>
                        <div class=""centered"">
                            <p style=""font-size: 24px""><b>53%</b></p>
                        </div>","O_6_1_O",""
"","","","","","html-keyboard-response","122","252941","0.0-2.0-6.0-0.0-0.2","38","1","2022-04-05 02:48:59","c79472ad15d8b617a4d57d5bf56a810f","58.11.10.85","Mozilla/5.0 (Windows NT 10.0; Win64; x64) AppleWebKit/537.36 (KHTML, like Gecko) Chrome/99.0.4844.74 Safari/537.36","WebKit","Chrome","99.0.4844.74","Windows","10.0","null","null","","","<p style=""font-size:64px;"">+</p>","O_6_1_O",""
"","","","","","html-keyboard-response","123","254193","0.0-2.0-6.0-0.0-1.2","38","1","2022-04-05 02:48:59","c79472ad15d8b617a4d57d5bf56a810f","58.11.10.85","Mozilla/5.0 (Windows NT 10.0; Win64; x64) AppleWebKit/537.36 (KHTML, like Gecko) Chrome/99.0.4844.74 Safari/537.36","WebKit","Chrome","99.0.4844.74","Windows","10.0","null","null","","","
                        <div class=pink>
                        <div class=""centered"">
                            <p style=""font-size: 24px""><b>51%</b></p>
                        </div>","O_6_1_O",""
"","","","","","html-keyboard-response","124","254596","0.0-2.0-6.0-0.0-0.3","38","1","2022-04-05 02:48:59","c79472ad15d8b617a4d57d5bf56a810f","58.11.10.85","Mozilla/5.0 (Windows NT 10.0; Win64; x64) AppleWebKit/537.36 (KHTML, like Gecko) Chrome/99.0.4844.74 Safari/537.36","WebKit","Chrome","99.0.4844.74","Windows","10.0","null","null","","","<p style=""font-size:64px;"">+</p>","O_6_1_O",""
"","","","","","html-keyboard-response","125","255847","0.0-2.0-6.0-0.0-1.3","38","1","2022-04-05 02:48:59","c79472ad15d8b617a4d57d5bf56a810f","58.11.10.85","Mozilla/5.0 (Windows NT 10.0; Win64; x64) AppleWebKit/537.36 (KHTML, like Gecko) Chrome/99.0.4844.74 Safari/537.36","WebKit","Chrome","99.0.4844.74","Windows","10.0","null","null","","","
                        <div class=pink>
                        <div class=""centered"">
                            <p style=""font-size: 24px""><b>51%</b></p>
                        </div>","O_6_1_O",""
"","","","","","html-keyboard-response","126","256249","0.0-2.0-6.0-0.0-0.4","38","1","2022-04-05 02:48:59","c79472ad15d8b617a4d57d5bf56a810f","58.11.10.85","Mozilla/5.0 (Windows NT 10.0; Win64; x64) AppleWebKit/537.36 (KHTML, like Gecko) Chrome/99.0.4844.74 Safari/537.36","WebKit","Chrome","99.0.4844.74","Windows","10.0","null","null","","","<p style=""font-size:64px;"">+</p>","O_6_1_O",""
"","","","","","html-keyboard-response","127","257500","0.0-2.0-6.0-0.0-1.4","38","1","2022-04-05 02:48:59","c79472ad15d8b617a4d57d5bf56a810f","58.11.10.85","Mozilla/5.0 (Windows NT 10.0; Win64; x64) AppleWebKit/537.36 (KHTML, like Gecko) Chrome/99.0.4844.74 Safari/537.36","WebKit","Chrome","99.0.4844.74","Windows","10.0","null","null","","","
                        <div class=orange>
                        <div class=""centered"">
                            <p style=""font-size: 24px""><b>54%</b></p>
                        </div>","O_6_1_O",""
"","","","","","html-keyboard-response","128","257902","0.0-2.0-6.0-0.0-0.5","38","1","2022-04-05 02:48:59","c79472ad15d8b617a4d57d5bf56a810f","58.11.10.85","Mozilla/5.0 (Windows NT 10.0; Win64; x64) AppleWebKit/537.36 (KHTML, like Gecko) Chrome/99.0.4844.74 Safari/537.36","WebKit","Chrome","99.0.4844.74","Windows","10.0","null","null","","","<p style=""font-size:64px;"">+</p>","O_6_1_O",""
"","","","","","html-keyboard-response","129","259154","0.0-2.0-6.0-0.0-1.5","38","1","2022-04-05 02:48:59","c79472ad15d8b617a4d57d5bf56a810f","58.11.10.85","Mozilla/5.0 (Windows NT 10.0; Win64; x64) AppleWebKit/537.36 (KHTML, like Gecko) Chrome/99.0.4844.74 Safari/537.36","WebKit","Chrome","99.0.4844.74","Windows","10.0","null","null","","","
                        <div class=orange>
                        <div class=""centered"">
                            <p style=""font-size: 24px""><b>53%</b></p>
                        </div>","O_6_1_O",""
"","","","","","html-keyboard-response","130","259562","0.0-2.0-6.0-1.0-0.0","38","1","2022-04-05 02:48:59","c79472ad15d8b617a4d57d5bf56a810f","58.11.10.85","Mozilla/5.0 (Windows NT 10.0; Win64; x64) AppleWebKit/537.36 (KHTML, like Gecko) Chrome/99.0.4844.74 Safari/537.36","WebKit","Chrome","99.0.4844.74","Windows","10.0","null","null","","","<p style=""font-size:64px;"">+</p>","O_6_1_O",""
"","","","","","html-keyboard-response","131","260813","0.0-2.0-6.0-1.0-1.0","38","1","2022-04-05 02:48:59","c79472ad15d8b617a4d57d5bf56a810f","58.11.10.85","Mozilla/5.0 (Windows NT 10.0; Win64; x64) AppleWebKit/537.36 (KHTML, like Gecko) Chrome/99.0.4844.74 Safari/537.36","WebKit","Chrome","99.0.4844.74","Windows","10.0","null","null","","","
                        <div class=""orange"">
                        <div class=""centered"">
                            <p style=""font-size: 24px""><b>50%</b></p>
                        </div>","O_6_1_O",""
"","","","","","html-slider-response","132","263712","0.0-2.0-6.0-2.0","38","1","2022-04-05 02:48:59","c79472ad15d8b617a4d57d5bf56a810f","58.11.10.85","Mozilla/5.0 (Windows NT 10.0; Win64; x64) AppleWebKit/537.36 (KHTML, like Gecko) Chrome/99.0.4844.74 Safari/537.36","WebKit","Chrome","99.0.4844.74","Windows","10.0","2898.0999999046326","17","","","<div style=""width: 500px; height: 100px;""><p>Place your bid for more information.</p></div>","infoBid","24"
"","","","","","html-keyboard-response","133","264114","0.0-2.0-6.0-3.0-0.0","38","1","2022-04-05 02:48:59","c79472ad15d8b617a4d57d5bf56a810f","58.11.10.85","Mozilla/5.0 (Windows NT 10.0; Win64; x64) AppleWebKit/537.36 (KHTML, like Gecko) Chrome/99.0.4844.74 Safari/537.36","WebKit","Chrome","99.0.4844.74","Windows","10.0","null","null","","","<p style=""font-size:64px;"">+</p>","O_6_1_O",""
"","","","","","html-keyboard-response","134","265365","0.0-2.0-6.0-3.0-1.0","38","1","2022-04-05 02:48:59","c79472ad15d8b617a4d57d5bf56a810f","58.11.10.85","Mozilla/5.0 (Windows NT 10.0; Win64; x64) AppleWebKit/537.36 (KHTML, like Gecko) Chrome/99.0.4844.74 Safari/537.36","WebKit","Chrome","99.0.4844.74","Windows","10.0","null","null","","","<div class=pink>
                <div class=""centered"">
                    <p style=""font-size: 24px""><b>52%</b></p>
                </div>","O_6_1_O",""
"","","","","","html-keyboard-response","135","268946","0.0-2.0-6.0-4.0-0.0","38","1","2022-04-05 02:48:59","c79472ad15d8b617a4d57d5bf56a810f","58.11.10.85","Mozilla/5.0 (Windows NT 10.0; Win64; x64) AppleWebKit/537.36 (KHTML, like Gecko) Chrome/99.0.4844.74 Safari/537.36","WebKit","Chrome","99.0.4844.74","Windows","10.0","3580.2999999523163","f","","","
                      <div class=""row"">

                          <div class=""column"">
                              <div class=""orange""></div>
                              <div class=""leftChoiceText"">
                                  <p style=""font-size: 32px""><b>F</b></p>
                              </div>
                          </div>

                          <div class=""column"">
                              <div class=""pink""></div>
                              <div class=""rightChoiceText"">
                                  <p style=""font-size: 32px""><b>J</b></p>
                              </div>
                          </div>

                      </div>

                      <div class=""centeredTop"">
                          Which colour do you<br>
                          predict will win?
                      </div>","O_6_1_O",""
"","","","","","html-keyboard-response","136","270449","0.0-2.0-6.0-4.0-1.0","38","1","2022-04-05 02:48:59","c79472ad15d8b617a4d57d5bf56a810f","58.11.10.85","Mozilla/5.0 (Windows NT 10.0; Win64; x64) AppleWebKit/537.36 (KHTML, like Gecko) Chrome/99.0.4844.74 Safari/537.36","WebKit","Chrome","99.0.4844.74","Windows","10.0","null","null","","","<p style=""font-size:64px;"">+</p>","O_6_1_O",""
"","","","","","html-keyboard-response","137","270851","0.0-2.0-7.0-0.0-0.0","38","1","2022-04-05 02:48:59","c79472ad15d8b617a4d57d5bf56a810f","58.11.10.85","Mozilla/5.0 (Windows NT 10.0; Win64; x64) AppleWebKit/537.36 (KHTML, like Gecko) Chrome/99.0.4844.74 Safari/537.36","WebKit","Chrome","99.0.4844.74","Windows","10.0","null","null","","","<p style=""font-size:64px;"">+</p>","P_2_3_P",""
"","","","","","html-keyboard-response","138","272103","0.0-2.0-7.0-0.0-1.0","38","1","2022-04-05 02:48:59","c79472ad15d8b617a4d57d5bf56a810f","58.11.10.85","Mozilla/5.0 (Windows NT 10.0; Win64; x64) AppleWebKit/537.36 (KHTML, like Gecko) Chrome/99.0.4844.74 Safari/537.36","WebKit","Chrome","99.0.4844.74","Windows","10.0","null","null","","","
                        <div class=orange>
                        <div class=""centered"">
                            <p style=""font-size: 24px""><b>52%</b></p>
                        </div>","P_2_3_P",""
"","","","","","html-keyboard-response","139","272505","0.0-2.0-7.0-0.0-0.1","38","1","2022-04-05 02:48:59","c79472ad15d8b617a4d57d5bf56a810f","58.11.10.85","Mozilla/5.0 (Windows NT 10.0; Win64; x64) AppleWebKit/537.36 (KHTML, like Gecko) Chrome/99.0.4844.74 Safari/537.36","WebKit","Chrome","99.0.4844.74","Windows","10.0","null","null","","","<p style=""font-size:64px;"">+</p>","P_2_3_P",""
"","","","","","html-keyboard-response","140","273758","0.0-2.0-7.0-0.0-1.1","38","1","2022-04-05 02:48:59","c79472ad15d8b617a4d57d5bf56a810f","58.11.10.85","Mozilla/5.0 (Windows NT 10.0; Win64; x64) AppleWebKit/537.36 (KHTML, like Gecko) Chrome/99.0.4844.74 Safari/537.36","WebKit","Chrome","99.0.4844.74","Windows","10.0","null","null","","","
                        <div class=pink>
                        <div class=""centered"">
                            <p style=""font-size: 24px""><b>54%</b></p>
                        </div>","P_2_3_P",""
"","","","","","html-keyboard-response","141","274160","0.0-2.0-7.0-0.0-0.2","38","1","2022-04-05 02:48:59","c79472ad15d8b617a4d57d5bf56a810f","58.11.10.85","Mozilla/5.0 (Windows NT 10.0; Win64; x64) AppleWebKit/537.36 (KHTML, like Gecko) Chrome/99.0.4844.74 Safari/537.36","WebKit","Chrome","99.0.4844.74","Windows","10.0","null","null","","","<p style=""font-size:64px;"">+</p>","P_2_3_P",""
"","","","","","html-keyboard-response","142","275412","0.0-2.0-7.0-0.0-1.2","38","1","2022-04-05 02:48:59","c79472ad15d8b617a4d57d5bf56a810f","58.11.10.85","Mozilla/5.0 (Windows NT 10.0; Win64; x64) AppleWebKit/537.36 (KHTML, like Gecko) Chrome/99.0.4844.74 Safari/537.36","WebKit","Chrome","99.0.4844.74","Windows","10.0","null","null","","","
                        <div class=orange>
                        <div class=""centered"">
                            <p style=""font-size: 24px""><b>52%</b></p>
                        </div>","P_2_3_P",""
"","","","","","html-keyboard-response","143","275814","0.0-2.0-7.0-0.0-0.3","38","1","2022-04-05 02:48:59","c79472ad15d8b617a4d57d5bf56a810f","58.11.10.85","Mozilla/5.0 (Windows NT 10.0; Win64; x64) AppleWebKit/537.36 (KHTML, like Gecko) Chrome/99.0.4844.74 Safari/537.36","WebKit","Chrome","99.0.4844.74","Windows","10.0","null","null","","","<p style=""font-size:64px;"">+</p>","P_2_3_P",""
"","","","","","html-keyboard-response","144","277065","0.0-2.0-7.0-0.0-1.3","38","1","2022-04-05 02:48:59","c79472ad15d8b617a4d57d5bf56a810f","58.11.10.85","Mozilla/5.0 (Windows NT 10.0; Win64; x64) AppleWebKit/537.36 (KHTML, like Gecko) Chrome/99.0.4844.74 Safari/537.36","WebKit","Chrome","99.0.4844.74","Windows","10.0","null","null","","","
                        <div class=pink>
                        <div class=""centered"">
                            <p style=""font-size: 24px""><b>53%</b></p>
                        </div>","P_2_3_P",""
"","","","","","html-keyboard-response","145","277467","0.0-2.0-7.0-0.0-0.4","38","1","2022-04-05 02:48:59","c79472ad15d8b617a4d57d5bf56a810f","58.11.10.85","Mozilla/5.0 (Windows NT 10.0; Win64; x64) AppleWebKit/537.36 (KHTML, like Gecko) Chrome/99.0.4844.74 Safari/537.36","WebKit","Chrome","99.0.4844.74","Windows","10.0","null","null","","","<p style=""font-size:64px;"">+</p>","P_2_3_P",""
"","","","","","html-keyboard-response","146","278718","0.0-2.0-7.0-0.0-1.4","38","1","2022-04-05 02:48:59","c79472ad15d8b617a4d57d5bf56a810f","58.11.10.85","Mozilla/5.0 (Windows NT 10.0; Win64; x64) AppleWebKit/537.36 (KHTML, like Gecko) Chrome/99.0.4844.74 Safari/537.36","WebKit","Chrome","99.0.4844.74","Windows","10.0","null","null","","","
                        <div class=pink>
                        <div class=""centered"">
                            <p style=""font-size: 24px""><b>53%</b></p>
                        </div>","P_2_3_P",""
"","","","","","html-keyboard-response","147","279121","0.0-2.0-7.0-0.0-0.5","38","1","2022-04-05 02:48:59","c79472ad15d8b617a4d57d5bf56a810f","58.11.10.85","Mozilla/5.0 (Windows NT 10.0; Win64; x64) AppleWebKit/537.36 (KHTML, like Gecko) Chrome/99.0.4844.74 Safari/537.36","WebKit","Chrome","99.0.4844.74","Windows","10.0","null","null","","","<p style=""font-size:64px;"">+</p>","P_2_3_P",""
"","","","","","html-keyboard-response","148","280374","0.0-2.0-7.0-0.0-1.5","38","1","2022-04-05 02:48:59","c79472ad15d8b617a4d57d5bf56a810f","58.11.10.85","Mozilla/5.0 (Windows NT 10.0; Win64; x64) AppleWebKit/537.36 (KHTML, like Gecko) Chrome/99.0.4844.74 Safari/537.36","WebKit","Chrome","99.0.4844.74","Windows","10.0","null","null","","","
                        <div class=orange>
                        <div class=""centered"">
                            <p style=""font-size: 24px""><b>54%</b></p>
                        </div>","P_2_3_P",""
"","","","","","html-keyboard-response","149","280775","0.0-2.0-7.0-1.0-0.0","38","1","2022-04-05 02:48:59","c79472ad15d8b617a4d57d5bf56a810f","58.11.10.85","Mozilla/5.0 (Windows NT 10.0; Win64; x64) AppleWebKit/537.36 (KHTML, like Gecko) Chrome/99.0.4844.74 Safari/537.36","WebKit","Chrome","99.0.4844.74","Windows","10.0","null","null","","","<p style=""font-size:64px;"">+</p>","P_2_3_P",""
"","","","","","html-keyboard-response","150","282027","0.0-2.0-7.0-1.0-1.0","38","1","2022-04-05 02:48:59","c79472ad15d8b617a4d57d5bf56a810f","58.11.10.85","Mozilla/5.0 (Windows NT 10.0; Win64; x64) AppleWebKit/537.36 (KHTML, like Gecko) Chrome/99.0.4844.74 Safari/537.36","WebKit","Chrome","99.0.4844.74","Windows","10.0","null","null","","","
                        <div class=""pink"">
                        <div class=""centered"">
                            <p style=""font-size: 24px""><b>50%</b></p>
                        </div>","P_2_3_P",""
"","","","","","html-slider-response","151","284448","0.0-2.0-7.0-2.0","38","1","2022-04-05 02:48:59","c79472ad15d8b617a4d57d5bf56a810f","58.11.10.85","Mozilla/5.0 (Windows NT 10.0; Win64; x64) AppleWebKit/537.36 (KHTML, like Gecko) Chrome/99.0.4844.74 Safari/537.36","WebKit","Chrome","99.0.4844.74","Windows","10.0","2419.7999999523163","18","","","<div style=""width: 500px; height: 100px;""><p>Place your bid for more information.</p></div>","infoBid","27"
"","","","","","html-keyboard-response","152","284850","0.0-2.0-7.0-3.0-0.0","38","1","2022-04-05 02:48:59","c79472ad15d8b617a4d57d5bf56a810f","58.11.10.85","Mozilla/5.0 (Windows NT 10.0; Win64; x64) AppleWebKit/537.36 (KHTML, like Gecko) Chrome/99.0.4844.74 Safari/537.36","WebKit","Chrome","99.0.4844.74","Windows","10.0","null","null","","","<p style=""font-size:64px;"">+</p>","P_2_3_P",""
"","","","","","html-keyboard-response","153","286103","0.0-2.0-7.0-3.0-1.0","38","1","2022-04-05 02:48:59","c79472ad15d8b617a4d57d5bf56a810f","58.11.10.85","Mozilla/5.0 (Windows NT 10.0; Win64; x64) AppleWebKit/537.36 (KHTML, like Gecko) Chrome/99.0.4844.74 Safari/537.36","WebKit","Chrome","99.0.4844.74","Windows","10.0","null","null","","","<div class=orange>
                <div class=""centered"">
                    <p style=""font-size: 24px""><b>51%</b></p>
                </div>","P_2_3_P",""
"","","","","","html-keyboard-response","154","286979","0.0-2.0-7.0-4.0-0.0","38","1","2022-04-05 02:48:59","c79472ad15d8b617a4d57d5bf56a810f","58.11.10.85","Mozilla/5.0 (Windows NT 10.0; Win64; x64) AppleWebKit/537.36 (KHTML, like Gecko) Chrome/99.0.4844.74 Safari/537.36","WebKit","Chrome","99.0.4844.74","Windows","10.0","875.2000000476837","j","","","
                      <div class=""row"">

                          <div class=""column"">
                              <div class=""orange""></div>
                              <div class=""leftChoiceText"">
                                  <p style=""font-size: 32px""><b>F</b></p>
                              </div>
                          </div>

                          <div class=""column"">
                              <div class=""pink""></div>
                              <div class=""rightChoiceText"">
                                  <p style=""font-size: 32px""><b>J</b></p>
                              </div>
                          </div>

                      </div>

                      <div class=""centeredTop"">
                          Which colour do you<br>
                          predict will win?
                      </div>","P_2_3_P",""
"","","","","","html-keyboard-response","155","288481","0.0-2.0-7.0-4.0-1.0","38","1","2022-04-05 02:48:59","c79472ad15d8b617a4d57d5bf56a810f","58.11.10.85","Mozilla/5.0 (Windows NT 10.0; Win64; x64) AppleWebKit/537.36 (KHTML, like Gecko) Chrome/99.0.4844.74 Safari/537.36","WebKit","Chrome","99.0.4844.74","Windows","10.0","null","null","","","<p style=""font-size:64px;"">+</p>","P_2_3_P",""
"","","","","","html-keyboard-response","156","765696","0.0-2.0-8.0","38","1","2022-04-05 02:48:59","c79472ad15d8b617a4d57d5bf56a810f","58.11.10.85","Mozilla/5.0 (Windows NT 10.0; Win64; x64) AppleWebKit/537.36 (KHTML, like Gecko) Chrome/99.0.4844.74 Safari/537.36","WebKit","Chrome","99.0.4844.74","Windows","10.0","477211.7999999523"," ","","","This is the end of the practice trials.<br><br>
        Press spacebar to begin the experiment.","",""
"","","","","","html-keyboard-response","157","766098","0.0-2.0-9.0-0.0-0.0","38","1","2022-04-05 02:48:59","c79472ad15d8b617a4d57d5bf56a810f","58.11.10.85","Mozilla/5.0 (Windows NT 10.0; Win64; x64) AppleWebKit/537.36 (KHTML, like Gecko) Chrome/99.0.4844.74 Safari/537.36","WebKit","Chrome","99.0.4844.74","Windows","10.0","null","null","","","<p style=""font-size:64px;"">+</p>","P_6_5_P",""
"","","","","","html-keyboard-response","158","767358","0.0-2.0-9.0-0.0-1.0","38","1","2022-04-05 02:48:59","c79472ad15d8b617a4d57d5bf56a810f","58.11.10.85","Mozilla/5.0 (Windows NT 10.0; Win64; x64) AppleWebKit/537.36 (KHTML, like Gecko) Chrome/99.0.4844.74 Safari/537.36","WebKit","Chrome","99.0.4844.74","Windows","10.0","null","null","","","
                        <div class=orange>
                        <div class=""centered"">
                            <p style=""font-size: 24px""><b>52%</b></p>
                        </div>","P_6_5_P",""
"","","","","","html-keyboard-response","159","767759","0.0-2.0-9.0-0.0-0.1","38","1","2022-04-05 02:48:59","c79472ad15d8b617a4d57d5bf56a810f","58.11.10.85","Mozilla/5.0 (Windows NT 10.0; Win64; x64) AppleWebKit/537.36 (KHTML, like Gecko) Chrome/99.0.4844.74 Safari/537.36","WebKit","Chrome","99.0.4844.74","Windows","10.0","null","null","","","<p style=""font-size:64px;"">+</p>","P_6_5_P",""
"","","","","","html-keyboard-response","160","769010","0.0-2.0-9.0-0.0-1.1","38","1","2022-04-05 02:48:59","c79472ad15d8b617a4d57d5bf56a810f","58.11.10.85","Mozilla/5.0 (Windows NT 10.0; Win64; x64) AppleWebKit/537.36 (KHTML, like Gecko) Chrome/99.0.4844.74 Safari/537.36","WebKit","Chrome","99.0.4844.74","Windows","10.0","null","null","","","
                        <div class=orange>
                        <div class=""centered"">
                            <p style=""font-size: 24px""><b>54%</b></p>
                        </div>","P_6_5_P",""
"","","","","","html-keyboard-response","161","769412","0.0-2.0-9.0-0.0-0.2","38","1","2022-04-05 02:48:59","c79472ad15d8b617a4d57d5bf56a810f","58.11.10.85","Mozilla/5.0 (Windows NT 10.0; Win64; x64) AppleWebKit/537.36 (KHTML, like Gecko) Chrome/99.0.4844.74 Safari/537.36","WebKit","Chrome","99.0.4844.74","Windows","10.0","null","null","","","<p style=""font-size:64px;"">+</p>","P_6_5_P",""
"","","","","","html-keyboard-response","162","770663","0.0-2.0-9.0-0.0-1.2","38","1","2022-04-05 02:48:59","c79472ad15d8b617a4d57d5bf56a810f","58.11.10.85","Mozilla/5.0 (Windows NT 10.0; Win64; x64) AppleWebKit/537.36 (KHTML, like Gecko) Chrome/99.0.4844.74 Safari/537.36","WebKit","Chrome","99.0.4844.74","Windows","10.0","null","null","","","
                        <div class=pink>
                        <div class=""centered"">
                            <p style=""font-size: 24px""><b>55%</b></p>
                        </div>","P_6_5_P",""
"","","","","","html-keyboard-response","163","771064","0.0-2.0-9.0-0.0-0.3","38","1","2022-04-05 02:48:59","c79472ad15d8b617a4d57d5bf56a810f","58.11.10.85","Mozilla/5.0 (Windows NT 10.0; Win64; x64) AppleWebKit/537.36 (KHTML, like Gecko) Chrome/99.0.4844.74 Safari/537.36","WebKit","Chrome","99.0.4844.74","Windows","10.0","null","null","","","<p style=""font-size:64px;"">+</p>","P_6_5_P",""
"","","","","","html-keyboard-response","164","772316","0.0-2.0-9.0-0.0-1.3","38","1","2022-04-05 02:48:59","c79472ad15d8b617a4d57d5bf56a810f","58.11.10.85","Mozilla/5.0 (Windows NT 10.0; Win64; x64) AppleWebKit/537.36 (KHTML, like Gecko) Chrome/99.0.4844.74 Safari/537.36","WebKit","Chrome","99.0.4844.74","Windows","10.0","null","null","","","
                        <div class=orange>
                        <div class=""centered"">
                            <p style=""font-size: 24px""><b>52%</b></p>
                        </div>","P_6_5_P",""
"","","","","","html-keyboard-response","165","772718","0.0-2.0-9.0-0.0-0.4","38","1","2022-04-05 02:48:59","c79472ad15d8b617a4d57d5bf56a810f","58.11.10.85","Mozilla/5.0 (Windows NT 10.0; Win64; x64) AppleWebKit/537.36 (KHTML, like Gecko) Chrome/99.0.4844.74 Safari/537.36","WebKit","Chrome","99.0.4844.74","Windows","10.0","null","null","","","<p style=""font-size:64px;"">+</p>","P_6_5_P",""
"","","","","","html-keyboard-response","166","773970","0.0-2.0-9.0-0.0-1.4","38","1","2022-04-05 02:48:59","c79472ad15d8b617a4d57d5bf56a810f","58.11.10.85","Mozilla/5.0 (Windows NT 10.0; Win64; x64) AppleWebKit/537.36 (KHTML, like Gecko) Chrome/99.0.4844.74 Safari/537.36","WebKit","Chrome","99.0.4844.74","Windows","10.0","null","null","","","
                        <div class=pink>
                        <div class=""centered"">
                            <p style=""font-size: 24px""><b>55%</b></p>
                        </div>","P_6_5_P",""
"","","","","","html-keyboard-response","167","774372","0.0-2.0-9.0-0.0-0.5","38","1","2022-04-05 02:48:59","c79472ad15d8b617a4d57d5bf56a810f","58.11.10.85","Mozilla/5.0 (Windows NT 10.0; Win64; x64) AppleWebKit/537.36 (KHTML, like Gecko) Chrome/99.0.4844.74 Safari/537.36","WebKit","Chrome","99.0.4844.74","Windows","10.0","null","null","","","<p style=""font-size:64px;"">+</p>","P_6_5_P",""
"","","","","","html-keyboard-response","168","775624","0.0-2.0-9.0-0.0-1.5","38","1","2022-04-05 02:48:59","c79472ad15d8b617a4d57d5bf56a810f","58.11.10.85","Mozilla/5.0 (Windows NT 10.0; Win64; x64) AppleWebKit/537.36 (KHTML, like Gecko) Chrome/99.0.4844.74 Safari/537.36","WebKit","Chrome","99.0.4844.74","Windows","10.0","null","null","","","
                        <div class=pink>
                        <div class=""centered"">
                            <p style=""font-size: 24px""><b>54%</b></p>
                        </div>","P_6_5_P",""
"","","","","","html-keyboard-response","169","776026","0.0-2.0-9.0-1.0-0.0","38","1","2022-04-05 02:48:59","c79472ad15d8b617a4d57d5bf56a810f","58.11.10.85","Mozilla/5.0 (Windows NT 10.0; Win64; x64) AppleWebKit/537.36 (KHTML, like Gecko) Chrome/99.0.4844.74 Safari/537.36","WebKit","Chrome","99.0.4844.74","Windows","10.0","null","null","","","<p style=""font-size:64px;"">+</p>","P_6_5_P",""
"","","","","","html-keyboard-response","170","777277","0.0-2.0-9.0-1.0-1.0","38","1","2022-04-05 02:48:59","c79472ad15d8b617a4d57d5bf56a810f","58.11.10.85","Mozilla/5.0 (Windows NT 10.0; Win64; x64) AppleWebKit/537.36 (KHTML, like Gecko) Chrome/99.0.4844.74 Safari/537.36","WebKit","Chrome","99.0.4844.74","Windows","10.0","null","null","","","
                        <div class=""pink"">
                        <div class=""centered"">
                            <p style=""font-size: 24px""><b>50%</b></p>
                        </div>","P_6_5_P",""
"","","","","","html-slider-response","171","780338","0.0-2.0-9.0-2.0","38","1","2022-04-05 02:48:59","c79472ad15d8b617a4d57d5bf56a810f","58.11.10.85","Mozilla/5.0 (Windows NT 10.0; Win64; x64) AppleWebKit/537.36 (KHTML, like Gecko) Chrome/99.0.4844.74 Safari/537.36","WebKit","Chrome","99.0.4844.74","Windows","10.0","3060.0999999046326","38","","","<div style=""width: 500px; height: 100px;""><p>Place your bid for more information.</p></div>","infoBid","50"
"","","","","","html-keyboard-response","172","780741","0.0-2.0-9.0-3.0-0.0","38","1","2022-04-05 02:48:59","c79472ad15d8b617a4d57d5bf56a810f","58.11.10.85","Mozilla/5.0 (Windows NT 10.0; Win64; x64) AppleWebKit/537.36 (KHTML, like Gecko) Chrome/99.0.4844.74 Safari/537.36","WebKit","Chrome","99.0.4844.74","Windows","10.0","null","null","","","<p style=""font-size:64px;"">+</p>","P_6_5_P",""
"","","","","","html-keyboard-response","173","781992","0.0-2.0-9.0-3.0-1.0","38","1","2022-04-05 02:48:59","c79472ad15d8b617a4d57d5bf56a810f","58.11.10.85","Mozilla/5.0 (Windows NT 10.0; Win64; x64) AppleWebKit/537.36 (KHTML, like Gecko) Chrome/99.0.4844.74 Safari/537.36","WebKit","Chrome","99.0.4844.74","Windows","10.0","null","null","","","<div class=""grey"">
                <div class=""centered"">
                    <p style=""font-size: 24px""><b>???</b></p>
                </div>","P_6_5_P",""
"","","","","","html-keyboard-response","174","783692","0.0-2.0-9.0-4.0-0.0","38","1","2022-04-05 02:48:59","c79472ad15d8b617a4d57d5bf56a810f","58.11.10.85","Mozilla/5.0 (Windows NT 10.0; Win64; x64) AppleWebKit/537.36 (KHTML, like Gecko) Chrome/99.0.4844.74 Safari/537.36","WebKit","Chrome","99.0.4844.74","Windows","10.0","1699.2999999523163","j","","","
                      <div class=""row"">

                          <div class=""column"">
                              <div class=""orange""></div>
                              <div class=""leftChoiceText"">
                                  <p style=""font-size: 32px""><b>F</b></p>
                              </div>
                          </div>

                          <div class=""column"">
                              <div class=""pink""></div>
                              <div class=""rightChoiceText"">
                                  <p style=""font-size: 32px""><b>J</b></p>
                              </div>
                          </div>

                      </div>

                      <div class=""centeredTop"">
                          Which colour do you<br>
                          predict will win?
                      </div>","P_6_5_P",""
"","","","","","html-keyboard-response","175","785194","0.0-2.0-9.0-4.0-1.0","38","1","2022-04-05 02:48:59","c79472ad15d8b617a4d57d5bf56a810f","58.11.10.85","Mozilla/5.0 (Windows NT 10.0; Win64; x64) AppleWebKit/537.36 (KHTML, like Gecko) Chrome/99.0.4844.74 Safari/537.36","WebKit","Chrome","99.0.4844.74","Windows","10.0","null","null","","","<p style=""font-size:64px;"">+</p>","P_6_5_P",""
"","","","","","html-keyboard-response","176","785596","0.0-2.0-10.0-0.0-0.0","38","1","2022-04-05 02:48:59","c79472ad15d8b617a4d57d5bf56a810f","58.11.10.85","Mozilla/5.0 (Windows NT 10.0; Win64; x64) AppleWebKit/537.36 (KHTML, like Gecko) Chrome/99.0.4844.74 Safari/537.36","WebKit","Chrome","99.0.4844.74","Windows","10.0","null","null","","","<p style=""font-size:64px;"">+</p>","O_6_6_P",""
"","","","","","html-keyboard-response","177","786848","0.0-2.0-10.0-0.0-1.0","38","1","2022-04-05 02:48:59","c79472ad15d8b617a4d57d5bf56a810f","58.11.10.85","Mozilla/5.0 (Windows NT 10.0; Win64; x64) AppleWebKit/537.36 (KHTML, like Gecko) Chrome/99.0.4844.74 Safari/537.36","WebKit","Chrome","99.0.4844.74","Windows","10.0","null","null","","","
                        <div class=orange>
                        <div class=""centered"">
                            <p style=""font-size: 24px""><b>55%</b></p>
                        </div>","O_6_6_P",""
"","","","","","html-keyboard-response","178","787249","0.0-2.0-10.0-0.0-0.1","38","1","2022-04-05 02:48:59","c79472ad15d8b617a4d57d5bf56a810f","58.11.10.85","Mozilla/5.0 (Windows NT 10.0; Win64; x64) AppleWebKit/537.36 (KHTML, like Gecko) Chrome/99.0.4844.74 Safari/537.36","WebKit","Chrome","99.0.4844.74","Windows","10.0","null","null","","","<p style=""font-size:64px;"">+</p>","O_6_6_P",""
"","","","","","html-keyboard-response","179","788501","0.0-2.0-10.0-0.0-1.1","38","1","2022-04-05 02:48:59","c79472ad15d8b617a4d57d5bf56a810f","58.11.10.85","Mozilla/5.0 (Windows NT 10.0; Win64; x64) AppleWebKit/537.36 (KHTML, like Gecko) Chrome/99.0.4844.74 Safari/537.36","WebKit","Chrome","99.0.4844.74","Windows","10.0","null","null","","","
                        <div class=pink>
                        <div class=""centered"">
                            <p style=""font-size: 24px""><b>53%</b></p>
                        </div>","O_6_6_P",""
"","","","","","html-keyboard-response","180","788902","0.0-2.0-10.0-0.0-0.2","38","1","2022-04-05 02:48:59","c79472ad15d8b617a4d57d5bf56a810f","58.11.10.85","Mozilla/5.0 (Windows NT 10.0; Win64; x64) AppleWebKit/537.36 (KHTML, like Gecko) Chrome/99.0.4844.74 Safari/537.36","WebKit","Chrome","99.0.4844.74","Windows","10.0","null","null","","","<p style=""font-size:64px;"">+</p>","O_6_6_P",""
"","","","","","html-keyboard-response","181","790153","0.0-2.0-10.0-0.0-1.2","38","1","2022-04-05 02:48:59","c79472ad15d8b617a4d57d5bf56a810f","58.11.10.85","Mozilla/5.0 (Windows NT 10.0; Win64; x64) AppleWebKit/537.36 (KHTML, like Gecko) Chrome/99.0.4844.74 Safari/537.36","WebKit","Chrome","99.0.4844.74","Windows","10.0","null","null","","","
                        <div class=pink>
                        <div class=""centered"">
                            <p style=""font-size: 24px""><b>52%</b></p>
                        </div>","O_6_6_P",""
"","","","","","html-keyboard-response","182","790555","0.0-2.0-10.0-0.0-0.3","38","1","2022-04-05 02:48:59","c79472ad15d8b617a4d57d5bf56a810f","58.11.10.85","Mozilla/5.0 (Windows NT 10.0; Win64; x64) AppleWebKit/537.36 (KHTML, like Gecko) Chrome/99.0.4844.74 Safari/537.36","WebKit","Chrome","99.0.4844.74","Windows","10.0","null","null","","","<p style=""font-size:64px;"">+</p>","O_6_6_P",""
"","","","","","html-keyboard-response","183","791806","0.0-2.0-10.0-0.0-1.3","38","1","2022-04-05 02:48:59","c79472ad15d8b617a4d57d5bf56a810f","58.11.10.85","Mozilla/5.0 (Windows NT 10.0; Win64; x64) AppleWebKit/537.36 (KHTML, like Gecko) Chrome/99.0.4844.74 Safari/537.36","WebKit","Chrome","99.0.4844.74","Windows","10.0","null","null","","","
                        <div class=orange>
                        <div class=""centered"">
                            <p style=""font-size: 24px""><b>55%</b></p>
                        </div>","O_6_6_P",""
"","","","","","html-keyboard-response","184","792210","0.0-2.0-10.0-0.0-0.4","38","1","2022-04-05 02:48:59","c79472ad15d8b617a4d57d5bf56a810f","58.11.10.85","Mozilla/5.0 (Windows NT 10.0; Win64; x64) AppleWebKit/537.36 (KHTML, like Gecko) Chrome/99.0.4844.74 Safari/537.36","WebKit","Chrome","99.0.4844.74","Windows","10.0","null","null","","","<p style=""font-size:64px;"">+</p>","O_6_6_P",""
"","","","","","html-keyboard-response","185","793462","0.0-2.0-10.0-0.0-1.4","38","1","2022-04-05 02:48:59","c79472ad15d8b617a4d57d5bf56a810f","58.11.10.85","Mozilla/5.0 (Windows NT 10.0; Win64; x64) AppleWebKit/537.36 (KHTML, like Gecko) Chrome/99.0.4844.74 Safari/537.36","WebKit","Chrome","99.0.4844.74","Windows","10.0","null","null","","","
                        <div class=orange>
                        <div class=""centered"">
                            <p style=""font-size: 24px""><b>54%</b></p>
                        </div>","O_6_6_P",""
"","","","","","html-keyboard-response","186","793864","0.0-2.0-10.0-0.0-0.5","38","1","2022-04-05 02:48:59","c79472ad15d8b617a4d57d5bf56a810f","58.11.10.85","Mozilla/5.0 (Windows NT 10.0; Win64; x64) AppleWebKit/537.36 (KHTML, like Gecko) Chrome/99.0.4844.74 Safari/537.36","WebKit","Chrome","99.0.4844.74","Windows","10.0","null","null","","","<p style=""font-size:64px;"">+</p>","O_6_6_P",""
"","","","","","html-keyboard-response","187","795115","0.0-2.0-10.0-0.0-1.5","38","1","2022-04-05 02:48:59","c79472ad15d8b617a4d57d5bf56a810f","58.11.10.85","Mozilla/5.0 (Windows NT 10.0; Win64; x64) AppleWebKit/537.36 (KHTML, like Gecko) Chrome/99.0.4844.74 Safari/537.36","WebKit","Chrome","99.0.4844.74","Windows","10.0","null","null","","","
                        <div class=pink>
                        <div class=""centered"">
                            <p style=""font-size: 24px""><b>53%</b></p>
                        </div>","O_6_6_P",""
"","","","","","html-keyboard-response","188","795517","0.0-2.0-10.0-1.0-0.0","38","1","2022-04-05 02:48:59","c79472ad15d8b617a4d57d5bf56a810f","58.11.10.85","Mozilla/5.0 (Windows NT 10.0; Win64; x64) AppleWebKit/537.36 (KHTML, like Gecko) Chrome/99.0.4844.74 Safari/537.36","WebKit","Chrome","99.0.4844.74","Windows","10.0","null","null","","","<p style=""font-size:64px;"">+</p>","O_6_6_P",""
"","","","","","html-keyboard-response","189","796768","0.0-2.0-10.0-1.0-1.0","38","1","2022-04-05 02:48:59","c79472ad15d8b617a4d57d5bf56a810f","58.11.10.85","Mozilla/5.0 (Windows NT 10.0; Win64; x64) AppleWebKit/537.36 (KHTML, like Gecko) Chrome/99.0.4844.74 Safari/537.36","WebKit","Chrome","99.0.4844.74","Windows","10.0","null","null","","","
                        <div class=""pink"">
                        <div class=""centered"">
                            <p style=""font-size: 24px""><b>50%</b></p>
                        </div>","O_6_6_P",""
"","","","","","html-slider-response","190","799014","0.0-2.0-10.0-2.0","38","1","2022-04-05 02:48:59","c79472ad15d8b617a4d57d5bf56a810f","58.11.10.85","Mozilla/5.0 (Windows NT 10.0; Win64; x64) AppleWebKit/537.36 (KHTML, like Gecko) Chrome/99.0.4844.74 Safari/537.36","WebKit","Chrome","99.0.4844.74","Windows","10.0","2245.0999999046326","24","","","<div style=""width: 500px; height: 100px;""><p>Place your bid for more information.</p></div>","infoBid","13"
"","","","","","html-keyboard-response","191","799416","0.0-2.0-10.0-3.0-0.0","38","1","2022-04-05 02:48:59","c79472ad15d8b617a4d57d5bf56a810f","58.11.10.85","Mozilla/5.0 (Windows NT 10.0; Win64; x64) AppleWebKit/537.36 (KHTML, like Gecko) Chrome/99.0.4844.74 Safari/537.36","WebKit","Chrome","99.0.4844.74","Windows","10.0","null","null","","","<p style=""font-size:64px;"">+</p>","O_6_6_P",""
"","","","","","html-keyboard-response","192","800668","0.0-2.0-10.0-3.0-1.0","38","1","2022-04-05 02:48:59","c79472ad15d8b617a4d57d5bf56a810f","58.11.10.85","Mozilla/5.0 (Windows NT 10.0; Win64; x64) AppleWebKit/537.36 (KHTML, like Gecko) Chrome/99.0.4844.74 Safari/537.36","WebKit","Chrome","99.0.4844.74","Windows","10.0","null","null","","","<div class=pink>
                <div class=""centered"">
                    <p style=""font-size: 24px""><b>51%</b></p>
                </div>","O_6_6_P",""
"","","","","","html-keyboard-response","193","801665","0.0-2.0-10.0-4.0-0.0","38","1","2022-04-05 02:48:59","c79472ad15d8b617a4d57d5bf56a810f","58.11.10.85","Mozilla/5.0 (Windows NT 10.0; Win64; x64) AppleWebKit/537.36 (KHTML, like Gecko) Chrome/99.0.4844.74 Safari/537.36","WebKit","Chrome","99.0.4844.74","Windows","10.0","996.0999999046326","j","","","
                      <div class=""row"">

                          <div class=""column"">
                              <div class=""orange""></div>
                              <div class=""leftChoiceText"">
                                  <p style=""font-size: 32px""><b>F</b></p>
                              </div>
                          </div>

                          <div class=""column"">
                              <div class=""pink""></div>
                              <div class=""rightChoiceText"">
                                  <p style=""font-size: 32px""><b>J</b></p>
                              </div>
                          </div>

                      </div>

                      <div class=""centeredTop"">
                          Which colour do you<br>
                          predict will win?
                      </div>","O_6_6_P",""
"","","","","","html-keyboard-response","194","803166","0.0-2.0-10.0-4.0-1.0","38","1","2022-04-05 02:48:59","c79472ad15d8b617a4d57d5bf56a810f","58.11.10.85","Mozilla/5.0 (Windows NT 10.0; Win64; x64) AppleWebKit/537.36 (KHTML, like Gecko) Chrome/99.0.4844.74 Safari/537.36","WebKit","Chrome","99.0.4844.74","Windows","10.0","null","null","","","<p style=""font-size:64px;"">+</p>","O_6_6_P",""
"","","","","","html-keyboard-response","195","803570","0.0-2.0-11.0-0.0-0.0","38","1","2022-04-05 02:48:59","c79472ad15d8b617a4d57d5bf56a810f","58.11.10.85","Mozilla/5.0 (Windows NT 10.0; Win64; x64) AppleWebKit/537.36 (KHTML, like Gecko) Chrome/99.0.4844.74 Safari/537.36","WebKit","Chrome","99.0.4844.74","Windows","10.0","null","null","","","<p style=""font-size:64px;"">+</p>","P_4_4_P",""
