"success","timeout","failed_images","failed_audio","failed_video","trial_type","trial_index","time_elapsed","internal_node_id","run_id","condition","recorded_at","source_code_version","ip","user_agent","device","browser","browser_version","platform","platform_version","rt","response","question_order","view_history","stimulus","trial_name","slider_start"
"true","false","[]","[]","[]","preload","0","162","0.0-0.0","40","1","2022-04-05 06:25:01","c79472ad15d8b617a4d57d5bf56a810f","202.63.76.145","Mozilla/5.0 (Windows NT 10.0; Win64; x64) AppleWebKit/537.36 (KHTML, like Gecko) Chrome/100.0.4896.75 Safari/537.36","WebKit","Chrome","100.0.4896.75","Windows","10.0","","","","","","",""
"","","","","","survey-multi-choice","1","5306","0.0-1.0-0.0","40","1","2022-04-05 06:25:01","c79472ad15d8b617a4d57d5bf56a810f","202.63.76.145","Mozilla/5.0 (Windows NT 10.0; Win64; x64) AppleWebKit/537.36 (KHTML, like Gecko) Chrome/100.0.4896.75 Safari/537.36","WebKit","Chrome","100.0.4896.75","Windows","10.0","5141.20000000298","{""Gender"":""Male""}","[0]","","","",""
"","","","","","survey-text","2","7033","0.0-1.0-1.0","40","1","2022-04-05 06:25:01","c79472ad15d8b617a4d57d5bf56a810f","202.63.76.145","Mozilla/5.0 (Windows NT 10.0; Win64; x64) AppleWebKit/537.36 (KHTML, like Gecko) Chrome/100.0.4896.75 Safari/537.36","WebKit","Chrome","100.0.4896.75","Windows","10.0","1721","{""Age"":""22""}","","","","",""
"","","","","","instructions","3","114831","0.0-1.0-2.0","40","1","2022-04-05 06:25:01","c79472ad15d8b617a4d57d5bf56a810f","202.63.76.145","Mozilla/5.0 (Windows NT 10.0; Win64; x64) AppleWebKit/537.36 (KHTML, like Gecko) Chrome/100.0.4896.75 Safari/537.36","WebKit","Chrome","100.0.4896.75","Windows","10.0","107797.80000000075","","","[{""page_index"":0,""viewing_time"":5010.10000000149},{""page_index"":1,""viewing_time"":14106.699999999255},{""page_index"":2,""viewing_time"":11822.300000000745},{""page_index"":3,""viewing_time"":6000.79999999702},{""page_index"":4,""viewing_time"":9184.400000002235},{""page_index"":5,""viewing_time"":8417.699999999255},{""page_index"":6,""viewing_time"":5850.39999999851},{""page_index"":7,""viewing_time"":8431.900000002235},{""page_index"":8,""viewing_time"":4773.800000000745},{""page_index"":9,""viewing_time"":4127.29999999702},{""page_index"":10,""viewing_time"":3412.800000000745},{""page_index"":11,""viewing_time"":11426.800000000745},{""page_index"":12,""viewing_time"":12515.89999999851},{""page_index"":13,""viewing_time"":2716.300000000745}]","","",""
"","","","","","html-keyboard-response","4","115235","0.0-2.0-0.0-0.0-0.0","40","1","2022-04-05 06:25:01","c79472ad15d8b617a4d57d5bf56a810f","202.63.76.145","Mozilla/5.0 (Windows NT 10.0; Win64; x64) AppleWebKit/537.36 (KHTML, like Gecko) Chrome/100.0.4896.75 Safari/537.36","WebKit","Chrome","100.0.4896.75","Windows","10.0","null","null","","","<p style=""font-size:64px;"">+</p>","Z_4_O",""
"","","","","","html-keyboard-response","5","116487","0.0-2.0-0.0-0.0-1.0","40","1","2022-04-05 06:25:01","c79472ad15d8b617a4d57d5bf56a810f","202.63.76.145","Mozilla/5.0 (Windows NT 10.0; Win64; x64) AppleWebKit/537.36 (KHTML, like Gecko) Chrome/100.0.4896.75 Safari/537.36","WebKit","Chrome","100.0.4896.75","Windows","10.0","null","null","","","
                        <div class=pink>
                        <div class=""centered"">
                            <p style=""font-size: 24px""><b>51%</b></p>
                        </div>","Z_4_O",""
"","","","","","html-keyboard-response","6","116888","0.0-2.0-0.0-0.0-0.1","40","1","2022-04-05 06:25:01","c79472ad15d8b617a4d57d5bf56a810f","202.63.76.145","Mozilla/5.0 (Windows NT 10.0; Win64; x64) AppleWebKit/537.36 (KHTML, like Gecko) Chrome/100.0.4896.75 Safari/537.36","WebKit","Chrome","100.0.4896.75","Windows","10.0","null","null","","","<p style=""font-size:64px;"">+</p>","Z_4_O",""
"","","","","","html-keyboard-response","7","118139","0.0-2.0-0.0-0.0-1.1","40","1","2022-04-05 06:25:01","c79472ad15d8b617a4d57d5bf56a810f","202.63.76.145","Mozilla/5.0 (Windows NT 10.0; Win64; x64) AppleWebKit/537.36 (KHTML, like Gecko) Chrome/100.0.4896.75 Safari/537.36","WebKit","Chrome","100.0.4896.75","Windows","10.0","null","null","","","
                        <div class=pink>
                        <div class=""centered"">
                            <p style=""font-size: 24px""><b>55%</b></p>
                        </div>","Z_4_O",""
"","","","","","html-keyboard-response","8","118540","0.0-2.0-0.0-0.0-0.2","40","1","2022-04-05 06:25:01","c79472ad15d8b617a4d57d5bf56a810f","202.63.76.145","Mozilla/5.0 (Windows NT 10.0; Win64; x64) AppleWebKit/537.36 (KHTML, like Gecko) Chrome/100.0.4896.75 Safari/537.36","WebKit","Chrome","100.0.4896.75","Windows","10.0","null","null","","","<p style=""font-size:64px;"">+</p>","Z_4_O",""
"","","","","","html-keyboard-response","9","119808","0.0-2.0-0.0-0.0-1.2","40","1","2022-04-05 06:25:01","c79472ad15d8b617a4d57d5bf56a810f","202.63.76.145","Mozilla/5.0 (Windows NT 10.0; Win64; x64) AppleWebKit/537.36 (KHTML, like Gecko) Chrome/100.0.4896.75 Safari/537.36","WebKit","Chrome","100.0.4896.75","Windows","10.0","null","null","","","
                        <div class=orange>
                        <div class=""centered"">
                            <p style=""font-size: 24px""><b>54%</b></p>
                        </div>","Z_4_O",""
"","","","","","html-keyboard-response","10","120209","0.0-2.0-0.0-0.0-0.3","40","1","2022-04-05 06:25:01","c79472ad15d8b617a4d57d5bf56a810f","202.63.76.145","Mozilla/5.0 (Windows NT 10.0; Win64; x64) AppleWebKit/537.36 (KHTML, like Gecko) Chrome/100.0.4896.75 Safari/537.36","WebKit","Chrome","100.0.4896.75","Windows","10.0","null","null","","","<p style=""font-size:64px;"">+</p>","Z_4_O",""
"","","","","","html-keyboard-response","11","121461","0.0-2.0-0.0-0.0-1.3","40","1","2022-04-05 06:25:01","c79472ad15d8b617a4d57d5bf56a810f","202.63.76.145","Mozilla/5.0 (Windows NT 10.0; Win64; x64) AppleWebKit/537.36 (KHTML, like Gecko) Chrome/100.0.4896.75 Safari/537.36","WebKit","Chrome","100.0.4896.75","Windows","10.0","null","null","","","
                        <div class=orange>
                        <div class=""centered"">
                            <p style=""font-size: 24px""><b>51%</b></p>
                        </div>","Z_4_O",""
"","","","","","html-keyboard-response","12","121862","0.0-2.0-0.0-0.0-0.4","40","1","2022-04-05 06:25:01","c79472ad15d8b617a4d57d5bf56a810f","202.63.76.145","Mozilla/5.0 (Windows NT 10.0; Win64; x64) AppleWebKit/537.36 (KHTML, like Gecko) Chrome/100.0.4896.75 Safari/537.36","WebKit","Chrome","100.0.4896.75","Windows","10.0","null","null","","","<p style=""font-size:64px;"">+</p>","Z_4_O",""
"","","","","","html-keyboard-response","13","123113","0.0-2.0-0.0-0.0-1.4","40","1","2022-04-05 06:25:01","c79472ad15d8b617a4d57d5bf56a810f","202.63.76.145","Mozilla/5.0 (Windows NT 10.0; Win64; x64) AppleWebKit/537.36 (KHTML, like Gecko) Chrome/100.0.4896.75 Safari/537.36","WebKit","Chrome","100.0.4896.75","Windows","10.0","null","null","","","
                        <div class=orange>
                        <div class=""centered"">
                            <p style=""font-size: 24px""><b>54%</b></p>
                        </div>","Z_4_O",""
"","","","","","html-keyboard-response","14","123514","0.0-2.0-0.0-0.0-0.5","40","1","2022-04-05 06:25:01","c79472ad15d8b617a4d57d5bf56a810f","202.63.76.145","Mozilla/5.0 (Windows NT 10.0; Win64; x64) AppleWebKit/537.36 (KHTML, like Gecko) Chrome/100.0.4896.75 Safari/537.36","WebKit","Chrome","100.0.4896.75","Windows","10.0","null","null","","","<p style=""font-size:64px;"">+</p>","Z_4_O",""
"","","","","","html-keyboard-response","15","124766","0.0-2.0-0.0-0.0-1.5","40","1","2022-04-05 06:25:01","c79472ad15d8b617a4d57d5bf56a810f","202.63.76.145","Mozilla/5.0 (Windows NT 10.0; Win64; x64) AppleWebKit/537.36 (KHTML, like Gecko) Chrome/100.0.4896.75 Safari/537.36","WebKit","Chrome","100.0.4896.75","Windows","10.0","null","null","","","
                        <div class=pink>
                        <div class=""centered"">
                            <p style=""font-size: 24px""><b>53%</b></p>
                        </div>","Z_4_O",""
"","","","","","html-keyboard-response","16","125168","0.0-2.0-0.0-1.0-0.0","40","1","2022-04-05 06:25:01","c79472ad15d8b617a4d57d5bf56a810f","202.63.76.145","Mozilla/5.0 (Windows NT 10.0; Win64; x64) AppleWebKit/537.36 (KHTML, like Gecko) Chrome/100.0.4896.75 Safari/537.36","WebKit","Chrome","100.0.4896.75","Windows","10.0","null","null","","","<p style=""font-size:64px;"">+</p>","Z_4_O",""
"","","","","","html-keyboard-response","17","126421","0.0-2.0-0.0-1.0-1.0","40","1","2022-04-05 06:25:01","c79472ad15d8b617a4d57d5bf56a810f","202.63.76.145","Mozilla/5.0 (Windows NT 10.0; Win64; x64) AppleWebKit/537.36 (KHTML, like Gecko) Chrome/100.0.4896.75 Safari/537.36","WebKit","Chrome","100.0.4896.75","Windows","10.0","null","null","","","
                        <div class=""orange"">
                        <div class=""centered"">
                            <p style=""font-size: 24px""><b>50%</b></p>
                        </div>","Z_4_O",""
"","","","","","html-slider-response","18","136505","0.0-2.0-0.0-2.0","40","1","2022-04-05 06:25:01","c79472ad15d8b617a4d57d5bf56a810f","202.63.76.145","Mozilla/5.0 (Windows NT 10.0; Win64; x64) AppleWebKit/537.36 (KHTML, like Gecko) Chrome/100.0.4896.75 Safari/537.36","WebKit","Chrome","100.0.4896.75","Windows","10.0","10083.099999997765","0","","","<div style=""width: 500px; height: 100px;""><p>Place your bid for more information.</p></div>","infoBid","5"
"","","","","","html-keyboard-response","19","136907","0.0-2.0-0.0-3.0-0.0","40","1","2022-04-05 06:25:01","c79472ad15d8b617a4d57d5bf56a810f","202.63.76.145","Mozilla/5.0 (Windows NT 10.0; Win64; x64) AppleWebKit/537.36 (KHTML, like Gecko) Chrome/100.0.4896.75 Safari/537.36","WebKit","Chrome","100.0.4896.75","Windows","10.0","null","null","","","<p style=""font-size:64px;"">+</p>","Z_4_O",""
"","","","","","html-keyboard-response","20","138159","0.0-2.0-0.0-3.0-1.0","40","1","2022-04-05 06:25:01","c79472ad15d8b617a4d57d5bf56a810f","202.63.76.145","Mozilla/5.0 (Windows NT 10.0; Win64; x64) AppleWebKit/537.36 (KHTML, like Gecko) Chrome/100.0.4896.75 Safari/537.36","WebKit","Chrome","100.0.4896.75","Windows","10.0","null","null","","","<div class=""grey"">
                <div class=""centered"">
                    <p style=""font-size: 24px""><b>???</b></p>
                </div>","Z_4_O",""
"","","","","","html-keyboard-response","21","141360","0.0-2.0-0.0-4.0-0.0","40","1","2022-04-05 06:25:01","c79472ad15d8b617a4d57d5bf56a810f","202.63.76.145","Mozilla/5.0 (Windows NT 10.0; Win64; x64) AppleWebKit/537.36 (KHTML, like Gecko) Chrome/100.0.4896.75 Safari/537.36","WebKit","Chrome","100.0.4896.75","Windows","10.0","3199.7999999970198","f","","","
                      <div class=""row"">

                          <div class=""column"">
                              <div class=""orange""></div>
                              <div class=""leftChoiceText"">
                                  <p style=""font-size: 32px""><b>F</b></p>
                              </div>
                          </div>

                          <div class=""column"">
                              <div class=""pink""></div>
                              <div class=""rightChoiceText"">
                                  <p style=""font-size: 32px""><b>J</b></p>
                              </div>
                          </div>

                      </div>

                      <div class=""centeredTop"">
                          Which colour do you<br>
                          predict will win?
                      </div>","Z_4_O",""
"","","","","","html-keyboard-response","22","142861","0.0-2.0-0.0-4.0-1.0","40","1","2022-04-05 06:25:01","c79472ad15d8b617a4d57d5bf56a810f","202.63.76.145","Mozilla/5.0 (Windows NT 10.0; Win64; x64) AppleWebKit/537.36 (KHTML, like Gecko) Chrome/100.0.4896.75 Safari/537.36","WebKit","Chrome","100.0.4896.75","Windows","10.0","null","null","","","<p style=""font-size:64px;"">+</p>","Z_4_O",""
"","","","","","html-keyboard-response","23","143262","0.0-2.0-1.0-0.0-0.0","40","1","2022-04-05 06:25:01","c79472ad15d8b617a4d57d5bf56a810f","202.63.76.145","Mozilla/5.0 (Windows NT 10.0; Win64; x64) AppleWebKit/537.36 (KHTML, like Gecko) Chrome/100.0.4896.75 Safari/537.36","WebKit","Chrome","100.0.4896.75","Windows","10.0","null","null","","","<p style=""font-size:64px;"">+</p>","O_4_2_O",""
"","","","","","html-keyboard-response","24","144514","0.0-2.0-1.0-0.0-1.0","40","1","2022-04-05 06:25:01","c79472ad15d8b617a4d57d5bf56a810f","202.63.76.145","Mozilla/5.0 (Windows NT 10.0; Win64; x64) AppleWebKit/537.36 (KHTML, like Gecko) Chrome/100.0.4896.75 Safari/537.36","WebKit","Chrome","100.0.4896.75","Windows","10.0","null","null","","","
                        <div class=orange>
                        <div class=""centered"">
                            <p style=""font-size: 24px""><b>54%</b></p>
                        </div>","O_4_2_O",""
"","","","","","html-keyboard-response","25","144915","0.0-2.0-1.0-0.0-0.1","40","1","2022-04-05 06:25:01","c79472ad15d8b617a4d57d5bf56a810f","202.63.76.145","Mozilla/5.0 (Windows NT 10.0; Win64; x64) AppleWebKit/537.36 (KHTML, like Gecko) Chrome/100.0.4896.75 Safari/537.36","WebKit","Chrome","100.0.4896.75","Windows","10.0","null","null","","","<p style=""font-size:64px;"">+</p>","O_4_2_O",""
"","","","","","html-keyboard-response","26","146167","0.0-2.0-1.0-0.0-1.1","40","1","2022-04-05 06:25:01","c79472ad15d8b617a4d57d5bf56a810f","202.63.76.145","Mozilla/5.0 (Windows NT 10.0; Win64; x64) AppleWebKit/537.36 (KHTML, like Gecko) Chrome/100.0.4896.75 Safari/537.36","WebKit","Chrome","100.0.4896.75","Windows","10.0","null","null","","","
                        <div class=orange>
                        <div class=""centered"">
                            <p style=""font-size: 24px""><b>51%</b></p>
                        </div>","O_4_2_O",""
"","","","","","html-keyboard-response","27","146569","0.0-2.0-1.0-0.0-0.2","40","1","2022-04-05 06:25:01","c79472ad15d8b617a4d57d5bf56a810f","202.63.76.145","Mozilla/5.0 (Windows NT 10.0; Win64; x64) AppleWebKit/537.36 (KHTML, like Gecko) Chrome/100.0.4896.75 Safari/537.36","WebKit","Chrome","100.0.4896.75","Windows","10.0","null","null","","","<p style=""font-size:64px;"">+</p>","O_4_2_O",""
"","","","","","html-keyboard-response","28","147821","0.0-2.0-1.0-0.0-1.2","40","1","2022-04-05 06:25:01","c79472ad15d8b617a4d57d5bf56a810f","202.63.76.145","Mozilla/5.0 (Windows NT 10.0; Win64; x64) AppleWebKit/537.36 (KHTML, like Gecko) Chrome/100.0.4896.75 Safari/537.36","WebKit","Chrome","100.0.4896.75","Windows","10.0","null","null","","","
                        <div class=pink>
                        <div class=""centered"">
                            <p style=""font-size: 24px""><b>52%</b></p>
                        </div>","O_4_2_O",""
"","","","","","html-keyboard-response","29","148222","0.0-2.0-1.0-0.0-0.3","40","1","2022-04-05 06:25:01","c79472ad15d8b617a4d57d5bf56a810f","202.63.76.145","Mozilla/5.0 (Windows NT 10.0; Win64; x64) AppleWebKit/537.36 (KHTML, like Gecko) Chrome/100.0.4896.75 Safari/537.36","WebKit","Chrome","100.0.4896.75","Windows","10.0","null","null","","","<p style=""font-size:64px;"">+</p>","O_4_2_O",""
"","","","","","html-keyboard-response","30","149473","0.0-2.0-1.0-0.0-1.3","40","1","2022-04-05 06:25:01","c79472ad15d8b617a4d57d5bf56a810f","202.63.76.145","Mozilla/5.0 (Windows NT 10.0; Win64; x64) AppleWebKit/537.36 (KHTML, like Gecko) Chrome/100.0.4896.75 Safari/537.36","WebKit","Chrome","100.0.4896.75","Windows","10.0","null","null","","","
                        <div class=pink>
                        <div class=""centered"">
                            <p style=""font-size: 24px""><b>51%</b></p>
                        </div>","O_4_2_O",""
"","","","","","html-keyboard-response","31","149874","0.0-2.0-1.0-0.0-0.4","40","1","2022-04-05 06:25:01","c79472ad15d8b617a4d57d5bf56a810f","202.63.76.145","Mozilla/5.0 (Windows NT 10.0; Win64; x64) AppleWebKit/537.36 (KHTML, like Gecko) Chrome/100.0.4896.75 Safari/537.36","WebKit","Chrome","100.0.4896.75","Windows","10.0","null","null","","","<p style=""font-size:64px;"">+</p>","O_4_2_O",""
"","","","","","html-keyboard-response","32","151125","0.0-2.0-1.0-0.0-1.4","40","1","2022-04-05 06:25:01","c79472ad15d8b617a4d57d5bf56a810f","202.63.76.145","Mozilla/5.0 (Windows NT 10.0; Win64; x64) AppleWebKit/537.36 (KHTML, like Gecko) Chrome/100.0.4896.75 Safari/537.36","WebKit","Chrome","100.0.4896.75","Windows","10.0","null","null","","","
                        <div class=orange>
                        <div class=""centered"">
                            <p style=""font-size: 24px""><b>54%</b></p>
                        </div>","O_4_2_O",""
"","","","","","html-keyboard-response","33","151528","0.0-2.0-1.0-0.0-0.5","40","1","2022-04-05 06:25:01","c79472ad15d8b617a4d57d5bf56a810f","202.63.76.145","Mozilla/5.0 (Windows NT 10.0; Win64; x64) AppleWebKit/537.36 (KHTML, like Gecko) Chrome/100.0.4896.75 Safari/537.36","WebKit","Chrome","100.0.4896.75","Windows","10.0","null","null","","","<p style=""font-size:64px;"">+</p>","O_4_2_O",""
"","","","","","html-keyboard-response","34","152780","0.0-2.0-1.0-0.0-1.5","40","1","2022-04-05 06:25:01","c79472ad15d8b617a4d57d5bf56a810f","202.63.76.145","Mozilla/5.0 (Windows NT 10.0; Win64; x64) AppleWebKit/537.36 (KHTML, like Gecko) Chrome/100.0.4896.75 Safari/537.36","WebKit","Chrome","100.0.4896.75","Windows","10.0","null","null","","","
                        <div class=pink>
                        <div class=""centered"">
                            <p style=""font-size: 24px""><b>52%</b></p>
                        </div>","O_4_2_O",""
"","","","","","html-keyboard-response","35","153182","0.0-2.0-1.0-1.0-0.0","40","1","2022-04-05 06:25:01","c79472ad15d8b617a4d57d5bf56a810f","202.63.76.145","Mozilla/5.0 (Windows NT 10.0; Win64; x64) AppleWebKit/537.36 (KHTML, like Gecko) Chrome/100.0.4896.75 Safari/537.36","WebKit","Chrome","100.0.4896.75","Windows","10.0","null","null","","","<p style=""font-size:64px;"">+</p>","O_4_2_O",""
"","","","","","html-keyboard-response","36","154433","0.0-2.0-1.0-1.0-1.0","40","1","2022-04-05 06:25:01","c79472ad15d8b617a4d57d5bf56a810f","202.63.76.145","Mozilla/5.0 (Windows NT 10.0; Win64; x64) AppleWebKit/537.36 (KHTML, like Gecko) Chrome/100.0.4896.75 Safari/537.36","WebKit","Chrome","100.0.4896.75","Windows","10.0","null","null","","","
                        <div class=""orange"">
                        <div class=""centered"">
                            <p style=""font-size: 24px""><b>50%</b></p>
                        </div>","O_4_2_O",""
"","","","","","html-slider-response","37","160260","0.0-2.0-1.0-2.0","40","1","2022-04-05 06:25:01","c79472ad15d8b617a4d57d5bf56a810f","202.63.76.145","Mozilla/5.0 (Windows NT 10.0; Win64; x64) AppleWebKit/537.36 (KHTML, like Gecko) Chrome/100.0.4896.75 Safari/537.36","WebKit","Chrome","100.0.4896.75","Windows","10.0","5826.39999999851","24","","","<div style=""width: 500px; height: 100px;""><p>Place your bid for more information.</p></div>","infoBid","35"
"","","","","","html-keyboard-response","38","160663","0.0-2.0-1.0-3.0-0.0","40","1","2022-04-05 06:25:01","c79472ad15d8b617a4d57d5bf56a810f","202.63.76.145","Mozilla/5.0 (Windows NT 10.0; Win64; x64) AppleWebKit/537.36 (KHTML, like Gecko) Chrome/100.0.4896.75 Safari/537.36","WebKit","Chrome","100.0.4896.75","Windows","10.0","null","null","","","<p style=""font-size:64px;"">+</p>","O_4_2_O",""
"","","","","","html-keyboard-response","39","161914","0.0-2.0-1.0-3.0-1.0","40","1","2022-04-05 06:25:01","c79472ad15d8b617a4d57d5bf56a810f","202.63.76.145","Mozilla/5.0 (Windows NT 10.0; Win64; x64) AppleWebKit/537.36 (KHTML, like Gecko) Chrome/100.0.4896.75 Safari/537.36","WebKit","Chrome","100.0.4896.75","Windows","10.0","null","null","","","<div class=""grey"">
                <div class=""centered"">
                    <p style=""font-size: 24px""><b>???</b></p>
                </div>","O_4_2_O",""
"","","","","","html-keyboard-response","40","165458","0.0-2.0-1.0-4.0-0.0","40","1","2022-04-05 06:25:01","c79472ad15d8b617a4d57d5bf56a810f","202.63.76.145","Mozilla/5.0 (Windows NT 10.0; Win64; x64) AppleWebKit/537.36 (KHTML, like Gecko) Chrome/100.0.4896.75 Safari/537.36","WebKit","Chrome","100.0.4896.75","Windows","10.0","3542.099999997765","f","","","
                      <div class=""row"">

                          <div class=""column"">
                              <div class=""orange""></div>
                              <div class=""leftChoiceText"">
                                  <p style=""font-size: 32px""><b>F</b></p>
                              </div>
                          </div>

                          <div class=""column"">
                              <div class=""pink""></div>
                              <div class=""rightChoiceText"">
                                  <p style=""font-size: 32px""><b>J</b></p>
                              </div>
                          </div>

                      </div>

                      <div class=""centeredTop"">
                          Which colour do you<br>
                          predict will win?
                      </div>","O_4_2_O",""
"","","","","","html-keyboard-response","41","166959","0.0-2.0-1.0-4.0-1.0","40","1","2022-04-05 06:25:01","c79472ad15d8b617a4d57d5bf56a810f","202.63.76.145","Mozilla/5.0 (Windows NT 10.0; Win64; x64) AppleWebKit/537.36 (KHTML, like Gecko) Chrome/100.0.4896.75 Safari/537.36","WebKit","Chrome","100.0.4896.75","Windows","10.0","null","null","","","<p style=""font-size:64px;"">+</p>","O_4_2_O",""
"","","","","","html-keyboard-response","42","167361","0.0-2.0-2.0-0.0-0.0","40","1","2022-04-05 06:25:01","c79472ad15d8b617a4d57d5bf56a810f","202.63.76.145","Mozilla/5.0 (Windows NT 10.0; Win64; x64) AppleWebKit/537.36 (KHTML, like Gecko) Chrome/100.0.4896.75 Safari/537.36","WebKit","Chrome","100.0.4896.75","Windows","10.0","null","null","","","<p style=""font-size:64px;"">+</p>","P_6_1_O",""
"","","","","","html-keyboard-response","43","168621","0.0-2.0-2.0-0.0-1.0","40","1","2022-04-05 06:25:01","c79472ad15d8b617a4d57d5bf56a810f","202.63.76.145","Mozilla/5.0 (Windows NT 10.0; Win64; x64) AppleWebKit/537.36 (KHTML, like Gecko) Chrome/100.0.4896.75 Safari/537.36","WebKit","Chrome","100.0.4896.75","Windows","10.0","null","null","","","
                        <div class=orange>
                        <div class=""centered"">
                            <p style=""font-size: 24px""><b>52%</b></p>
                        </div>","P_6_1_O",""
"","","","","","html-keyboard-response","44","169023","0.0-2.0-2.0-0.0-0.1","40","1","2022-04-05 06:25:01","c79472ad15d8b617a4d57d5bf56a810f","202.63.76.145","Mozilla/5.0 (Windows NT 10.0; Win64; x64) AppleWebKit/537.36 (KHTML, like Gecko) Chrome/100.0.4896.75 Safari/537.36","WebKit","Chrome","100.0.4896.75","Windows","10.0","null","null","","","<p style=""font-size:64px;"">+</p>","P_6_1_O",""
"","","","","","html-keyboard-response","45","170275","0.0-2.0-2.0-0.0-1.1","40","1","2022-04-05 06:25:01","c79472ad15d8b617a4d57d5bf56a810f","202.63.76.145","Mozilla/5.0 (Windows NT 10.0; Win64; x64) AppleWebKit/537.36 (KHTML, like Gecko) Chrome/100.0.4896.75 Safari/537.36","WebKit","Chrome","100.0.4896.75","Windows","10.0","null","null","","","
                        <div class=pink>
                        <div class=""centered"">
                            <p style=""font-size: 24px""><b>53%</b></p>
                        </div>","P_6_1_O",""
"","","","","","html-keyboard-response","46","170678","0.0-2.0-2.0-0.0-0.2","40","1","2022-04-05 06:25:01","c79472ad15d8b617a4d57d5bf56a810f","202.63.76.145","Mozilla/5.0 (Windows NT 10.0; Win64; x64) AppleWebKit/537.36 (KHTML, like Gecko) Chrome/100.0.4896.75 Safari/537.36","WebKit","Chrome","100.0.4896.75","Windows","10.0","null","null","","","<p style=""font-size:64px;"">+</p>","P_6_1_O",""
"","","","","","html-keyboard-response","47","171929","0.0-2.0-2.0-0.0-1.2","40","1","2022-04-05 06:25:01","c79472ad15d8b617a4d57d5bf56a810f","202.63.76.145","Mozilla/5.0 (Windows NT 10.0; Win64; x64) AppleWebKit/537.36 (KHTML, like Gecko) Chrome/100.0.4896.75 Safari/537.36","WebKit","Chrome","100.0.4896.75","Windows","10.0","null","null","","","
                        <div class=pink>
                        <div class=""centered"">
                            <p style=""font-size: 24px""><b>54%</b></p>
                        </div>","P_6_1_O",""
"","","","","","html-keyboard-response","48","172329","0.0-2.0-2.0-0.0-0.3","40","1","2022-04-05 06:25:01","c79472ad15d8b617a4d57d5bf56a810f","202.63.76.145","Mozilla/5.0 (Windows NT 10.0; Win64; x64) AppleWebKit/537.36 (KHTML, like Gecko) Chrome/100.0.4896.75 Safari/537.36","WebKit","Chrome","100.0.4896.75","Windows","10.0","null","null","","","<p style=""font-size:64px;"">+</p>","P_6_1_O",""
"","","","","","html-keyboard-response","49","173596","0.0-2.0-2.0-0.0-1.3","40","1","2022-04-05 06:25:01","c79472ad15d8b617a4d57d5bf56a810f","202.63.76.145","Mozilla/5.0 (Windows NT 10.0; Win64; x64) AppleWebKit/537.36 (KHTML, like Gecko) Chrome/100.0.4896.75 Safari/537.36","WebKit","Chrome","100.0.4896.75","Windows","10.0","null","null","","","
                        <div class=orange>
                        <div class=""centered"">
                            <p style=""font-size: 24px""><b>51%</b></p>
                        </div>","P_6_1_O",""
"","","","","","html-keyboard-response","50","173998","0.0-2.0-2.0-0.0-0.4","40","1","2022-04-05 06:25:01","c79472ad15d8b617a4d57d5bf56a810f","202.63.76.145","Mozilla/5.0 (Windows NT 10.0; Win64; x64) AppleWebKit/537.36 (KHTML, like Gecko) Chrome/100.0.4896.75 Safari/537.36","WebKit","Chrome","100.0.4896.75","Windows","10.0","null","null","","","<p style=""font-size:64px;"">+</p>","P_6_1_O",""
"","","","","","html-keyboard-response","51","175250","0.0-2.0-2.0-0.0-1.4","40","1","2022-04-05 06:25:01","c79472ad15d8b617a4d57d5bf56a810f","202.63.76.145","Mozilla/5.0 (Windows NT 10.0; Win64; x64) AppleWebKit/537.36 (KHTML, like Gecko) Chrome/100.0.4896.75 Safari/537.36","WebKit","Chrome","100.0.4896.75","Windows","10.0","null","null","","","
                        <div class=orange>
                        <div class=""centered"">
                            <p style=""font-size: 24px""><b>51%</b></p>
                        </div>","P_6_1_O",""
"","","","","","html-keyboard-response","52","175650","0.0-2.0-2.0-0.0-0.5","40","1","2022-04-05 06:25:01","c79472ad15d8b617a4d57d5bf56a810f","202.63.76.145","Mozilla/5.0 (Windows NT 10.0; Win64; x64) AppleWebKit/537.36 (KHTML, like Gecko) Chrome/100.0.4896.75 Safari/537.36","WebKit","Chrome","100.0.4896.75","Windows","10.0","null","null","","","<p style=""font-size:64px;"">+</p>","P_6_1_O",""
"","","","","","html-keyboard-response","53","176902","0.0-2.0-2.0-0.0-1.5","40","1","2022-04-05 06:25:01","c79472ad15d8b617a4d57d5bf56a810f","202.63.76.145","Mozilla/5.0 (Windows NT 10.0; Win64; x64) AppleWebKit/537.36 (KHTML, like Gecko) Chrome/100.0.4896.75 Safari/537.36","WebKit","Chrome","100.0.4896.75","Windows","10.0","null","null","","","
                        <div class=pink>
                        <div class=""centered"">
                            <p style=""font-size: 24px""><b>53%</b></p>
                        </div>","P_6_1_O",""
"","","","","","html-keyboard-response","54","177303","0.0-2.0-2.0-1.0-0.0","40","1","2022-04-05 06:25:01","c79472ad15d8b617a4d57d5bf56a810f","202.63.76.145","Mozilla/5.0 (Windows NT 10.0; Win64; x64) AppleWebKit/537.36 (KHTML, like Gecko) Chrome/100.0.4896.75 Safari/537.36","WebKit","Chrome","100.0.4896.75","Windows","10.0","null","null","","","<p style=""font-size:64px;"">+</p>","P_6_1_O",""
"","","","","","html-keyboard-response","55","178556","0.0-2.0-2.0-1.0-1.0","40","1","2022-04-05 06:25:01","c79472ad15d8b617a4d57d5bf56a810f","202.63.76.145","Mozilla/5.0 (Windows NT 10.0; Win64; x64) AppleWebKit/537.36 (KHTML, like Gecko) Chrome/100.0.4896.75 Safari/537.36","WebKit","Chrome","100.0.4896.75","Windows","10.0","null","null","","","
                        <div class=""orange"">
                        <div class=""centered"">
                            <p style=""font-size: 24px""><b>50%</b></p>
                        </div>","P_6_1_O",""
"","","","","","html-slider-response","56","182931","0.0-2.0-2.0-2.0","40","1","2022-04-05 06:25:01","c79472ad15d8b617a4d57d5bf56a810f","202.63.76.145","Mozilla/5.0 (Windows NT 10.0; Win64; x64) AppleWebKit/537.36 (KHTML, like Gecko) Chrome/100.0.4896.75 Safari/537.36","WebKit","Chrome","100.0.4896.75","Windows","10.0","4373.199999999255","26","","","<div style=""width: 500px; height: 100px;""><p>Place your bid for more information.</p></div>","infoBid","1"
"","","","","","html-keyboard-response","57","183332","0.0-2.0-2.0-3.0-0.0","40","1","2022-04-05 06:25:01","c79472ad15d8b617a4d57d5bf56a810f","202.63.76.145","Mozilla/5.0 (Windows NT 10.0; Win64; x64) AppleWebKit/537.36 (KHTML, like Gecko) Chrome/100.0.4896.75 Safari/537.36","WebKit","Chrome","100.0.4896.75","Windows","10.0","null","null","","","<p style=""font-size:64px;"">+</p>","P_6_1_O",""
"","","","","","html-keyboard-response","58","184583","0.0-2.0-2.0-3.0-1.0","40","1","2022-04-05 06:25:01","c79472ad15d8b617a4d57d5bf56a810f","202.63.76.145","Mozilla/5.0 (Windows NT 10.0; Win64; x64) AppleWebKit/537.36 (KHTML, like Gecko) Chrome/100.0.4896.75 Safari/537.36","WebKit","Chrome","100.0.4896.75","Windows","10.0","null","null","","","<div class=orange>
                <div class=""centered"">
                    <p style=""font-size: 24px""><b>53%</b></p>
                </div>","P_6_1_O",""
"","","","","","html-keyboard-response","59","185924","0.0-2.0-2.0-4.0-0.0","40","1","2022-04-05 06:25:01","c79472ad15d8b617a4d57d5bf56a810f","202.63.76.145","Mozilla/5.0 (Windows NT 10.0; Win64; x64) AppleWebKit/537.36 (KHTML, like Gecko) Chrome/100.0.4896.75 Safari/537.36","WebKit","Chrome","100.0.4896.75","Windows","10.0","1340","f","","","
                      <div class=""row"">

                          <div class=""column"">
                              <div class=""orange""></div>
                              <div class=""leftChoiceText"">
                                  <p style=""font-size: 32px""><b>F</b></p>
                              </div>
                          </div>

                          <div class=""column"">
                              <div class=""pink""></div>
                              <div class=""rightChoiceText"">
                                  <p style=""font-size: 32px""><b>J</b></p>
                              </div>
                          </div>

                      </div>

                      <div class=""centeredTop"">
                          Which colour do you<br>
                          predict will win?
                      </div>","P_6_1_O",""
"","","","","","html-keyboard-response","60","187424","0.0-2.0-2.0-4.0-1.0","40","1","2022-04-05 06:25:01","c79472ad15d8b617a4d57d5bf56a810f","202.63.76.145","Mozilla/5.0 (Windows NT 10.0; Win64; x64) AppleWebKit/537.36 (KHTML, like Gecko) Chrome/100.0.4896.75 Safari/537.36","WebKit","Chrome","100.0.4896.75","Windows","10.0","null","null","","","<p style=""font-size:64px;"">+</p>","P_6_1_O",""
"","","","","","html-keyboard-response","61","187826","0.0-2.0-3.0-0.0-0.0","40","1","2022-04-05 06:25:01","c79472ad15d8b617a4d57d5bf56a810f","202.63.76.145","Mozilla/5.0 (Windows NT 10.0; Win64; x64) AppleWebKit/537.36 (KHTML, like Gecko) Chrome/100.0.4896.75 Safari/537.36","WebKit","Chrome","100.0.4896.75","Windows","10.0","null","null","","","<p style=""font-size:64px;"">+</p>","O_2_2_O",""
"","","","","","html-keyboard-response","62","189077","0.0-2.0-3.0-0.0-1.0","40","1","2022-04-05 06:25:01","c79472ad15d8b617a4d57d5bf56a810f","202.63.76.145","Mozilla/5.0 (Windows NT 10.0; Win64; x64) AppleWebKit/537.36 (KHTML, like Gecko) Chrome/100.0.4896.75 Safari/537.36","WebKit","Chrome","100.0.4896.75","Windows","10.0","null","null","","","
                        <div class=pink>
                        <div class=""centered"">
                            <p style=""font-size: 24px""><b>52%</b></p>
                        </div>","O_2_2_O",""
"","","","","","html-keyboard-response","63","189478","0.0-2.0-3.0-0.0-0.1","40","1","2022-04-05 06:25:01","c79472ad15d8b617a4d57d5bf56a810f","202.63.76.145","Mozilla/5.0 (Windows NT 10.0; Win64; x64) AppleWebKit/537.36 (KHTML, like Gecko) Chrome/100.0.4896.75 Safari/537.36","WebKit","Chrome","100.0.4896.75","Windows","10.0","null","null","","","<p style=""font-size:64px;"">+</p>","O_2_2_O",""
"","","","","","html-keyboard-response","64","190730","0.0-2.0-3.0-0.0-1.1","40","1","2022-04-05 06:25:01","c79472ad15d8b617a4d57d5bf56a810f","202.63.76.145","Mozilla/5.0 (Windows NT 10.0; Win64; x64) AppleWebKit/537.36 (KHTML, like Gecko) Chrome/100.0.4896.75 Safari/537.36","WebKit","Chrome","100.0.4896.75","Windows","10.0","null","null","","","
                        <div class=pink>
                        <div class=""centered"">
                            <p style=""font-size: 24px""><b>54%</b></p>
                        </div>","O_2_2_O",""
"","","","","","html-keyboard-response","65","191132","0.0-2.0-3.0-0.0-0.2","40","1","2022-04-05 06:25:01","c79472ad15d8b617a4d57d5bf56a810f","202.63.76.145","Mozilla/5.0 (Windows NT 10.0; Win64; x64) AppleWebKit/537.36 (KHTML, like Gecko) Chrome/100.0.4896.75 Safari/537.36","WebKit","Chrome","100.0.4896.75","Windows","10.0","null","null","","","<p style=""font-size:64px;"">+</p>","O_2_2_O",""
"","","","","","html-keyboard-response","66","192382","0.0-2.0-3.0-0.0-1.2","40","1","2022-04-05 06:25:01","c79472ad15d8b617a4d57d5bf56a810f","202.63.76.145","Mozilla/5.0 (Windows NT 10.0; Win64; x64) AppleWebKit/537.36 (KHTML, like Gecko) Chrome/100.0.4896.75 Safari/537.36","WebKit","Chrome","100.0.4896.75","Windows","10.0","null","null","","","
                        <div class=pink>
                        <div class=""centered"">
                            <p style=""font-size: 24px""><b>52%</b></p>
                        </div>","O_2_2_O",""
"","","","","","html-keyboard-response","67","192787","0.0-2.0-3.0-0.0-0.3","40","1","2022-04-05 06:25:01","c79472ad15d8b617a4d57d5bf56a810f","202.63.76.145","Mozilla/5.0 (Windows NT 10.0; Win64; x64) AppleWebKit/537.36 (KHTML, like Gecko) Chrome/100.0.4896.75 Safari/537.36","WebKit","Chrome","100.0.4896.75","Windows","10.0","null","null","","","<p style=""font-size:64px;"">+</p>","O_2_2_O",""
"","","","","","html-keyboard-response","68","194039","0.0-2.0-3.0-0.0-1.3","40","1","2022-04-05 06:25:01","c79472ad15d8b617a4d57d5bf56a810f","202.63.76.145","Mozilla/5.0 (Windows NT 10.0; Win64; x64) AppleWebKit/537.36 (KHTML, like Gecko) Chrome/100.0.4896.75 Safari/537.36","WebKit","Chrome","100.0.4896.75","Windows","10.0","null","null","","","
                        <div class=orange>
                        <div class=""centered"">
                            <p style=""font-size: 24px""><b>53%</b></p>
                        </div>","O_2_2_O",""
"","","","","","html-keyboard-response","69","194441","0.0-2.0-3.0-0.0-0.4","40","1","2022-04-05 06:25:01","c79472ad15d8b617a4d57d5bf56a810f","202.63.76.145","Mozilla/5.0 (Windows NT 10.0; Win64; x64) AppleWebKit/537.36 (KHTML, like Gecko) Chrome/100.0.4896.75 Safari/537.36","WebKit","Chrome","100.0.4896.75","Windows","10.0","null","null","","","<p style=""font-size:64px;"">+</p>","O_2_2_O",""
"","","","","","html-keyboard-response","70","195693","0.0-2.0-3.0-0.0-1.4","40","1","2022-04-05 06:25:01","c79472ad15d8b617a4d57d5bf56a810f","202.63.76.145","Mozilla/5.0 (Windows NT 10.0; Win64; x64) AppleWebKit/537.36 (KHTML, like Gecko) Chrome/100.0.4896.75 Safari/537.36","WebKit","Chrome","100.0.4896.75","Windows","10.0","null","null","","","
                        <div class=orange>
                        <div class=""centered"">
                            <p style=""font-size: 24px""><b>52%</b></p>
                        </div>","O_2_2_O",""
"","","","","","html-keyboard-response","71","196094","0.0-2.0-3.0-0.0-0.5","40","1","2022-04-05 06:25:01","c79472ad15d8b617a4d57d5bf56a810f","202.63.76.145","Mozilla/5.0 (Windows NT 10.0; Win64; x64) AppleWebKit/537.36 (KHTML, like Gecko) Chrome/100.0.4896.75 Safari/537.36","WebKit","Chrome","100.0.4896.75","Windows","10.0","null","null","","","<p style=""font-size:64px;"">+</p>","O_2_2_O",""
"","","","","","html-keyboard-response","72","197345","0.0-2.0-3.0-0.0-1.5","40","1","2022-04-05 06:25:01","c79472ad15d8b617a4d57d5bf56a810f","202.63.76.145","Mozilla/5.0 (Windows NT 10.0; Win64; x64) AppleWebKit/537.36 (KHTML, like Gecko) Chrome/100.0.4896.75 Safari/537.36","WebKit","Chrome","100.0.4896.75","Windows","10.0","null","null","","","
                        <div class=orange>
                        <div class=""centered"">
                            <p style=""font-size: 24px""><b>55%</b></p>
                        </div>","O_2_2_O",""
"","","","","","html-keyboard-response","73","197747","0.0-2.0-3.0-1.0-0.0","40","1","2022-04-05 06:25:01","c79472ad15d8b617a4d57d5bf56a810f","202.63.76.145","Mozilla/5.0 (Windows NT 10.0; Win64; x64) AppleWebKit/537.36 (KHTML, like Gecko) Chrome/100.0.4896.75 Safari/537.36","WebKit","Chrome","100.0.4896.75","Windows","10.0","null","null","","","<p style=""font-size:64px;"">+</p>","O_2_2_O",""
"","","","","","html-keyboard-response","74","198999","0.0-2.0-3.0-1.0-1.0","40","1","2022-04-05 06:25:01","c79472ad15d8b617a4d57d5bf56a810f","202.63.76.145","Mozilla/5.0 (Windows NT 10.0; Win64; x64) AppleWebKit/537.36 (KHTML, like Gecko) Chrome/100.0.4896.75 Safari/537.36","WebKit","Chrome","100.0.4896.75","Windows","10.0","null","null","","","
                        <div class=""orange"">
                        <div class=""centered"">
                            <p style=""font-size: 24px""><b>50%</b></p>
                        </div>","O_2_2_O",""
"","","","","","html-slider-response","75","200310","0.0-2.0-3.0-2.0","40","1","2022-04-05 06:25:01","c79472ad15d8b617a4d57d5bf56a810f","202.63.76.145","Mozilla/5.0 (Windows NT 10.0; Win64; x64) AppleWebKit/537.36 (KHTML, like Gecko) Chrome/100.0.4896.75 Safari/537.36","WebKit","Chrome","100.0.4896.75","Windows","10.0","1310.5999999977648","0","","","<div style=""width: 500px; height: 100px;""><p>Place your bid for more information.</p></div>","infoBid","33"
"","","","","","html-keyboard-response","76","200712","0.0-2.0-3.0-3.0-0.0","40","1","2022-04-05 06:25:01","c79472ad15d8b617a4d57d5bf56a810f","202.63.76.145","Mozilla/5.0 (Windows NT 10.0; Win64; x64) AppleWebKit/537.36 (KHTML, like Gecko) Chrome/100.0.4896.75 Safari/537.36","WebKit","Chrome","100.0.4896.75","Windows","10.0","null","null","","","<p style=""font-size:64px;"">+</p>","O_2_2_O",""
"","","","","","html-keyboard-response","77","201963","0.0-2.0-3.0-3.0-1.0","40","1","2022-04-05 06:25:01","c79472ad15d8b617a4d57d5bf56a810f","202.63.76.145","Mozilla/5.0 (Windows NT 10.0; Win64; x64) AppleWebKit/537.36 (KHTML, like Gecko) Chrome/100.0.4896.75 Safari/537.36","WebKit","Chrome","100.0.4896.75","Windows","10.0","null","null","","","<div class=""grey"">
                <div class=""centered"">
                    <p style=""font-size: 24px""><b>???</b></p>
                </div>","O_2_2_O",""
"","","","","","html-keyboard-response","78","202865","0.0-2.0-3.0-4.0-0.0","40","1","2022-04-05 06:25:01","c79472ad15d8b617a4d57d5bf56a810f","202.63.76.145","Mozilla/5.0 (Windows NT 10.0; Win64; x64) AppleWebKit/537.36 (KHTML, like Gecko) Chrome/100.0.4896.75 Safari/537.36","WebKit","Chrome","100.0.4896.75","Windows","10.0","901.5","f","","","
                      <div class=""row"">

                          <div class=""column"">
                              <div class=""orange""></div>
                              <div class=""leftChoiceText"">
                                  <p style=""font-size: 32px""><b>F</b></p>
                              </div>
                          </div>

                          <div class=""column"">
                              <div class=""pink""></div>
                              <div class=""rightChoiceText"">
                                  <p style=""font-size: 32px""><b>J</b></p>
                              </div>
                          </div>

                      </div>

                      <div class=""centeredTop"">
                          Which colour do you<br>
                          predict will win?
                      </div>","O_2_2_O",""
"","","","","","html-keyboard-response","79","204366","0.0-2.0-3.0-4.0-1.0","40","1","2022-04-05 06:25:01","c79472ad15d8b617a4d57d5bf56a810f","202.63.76.145","Mozilla/5.0 (Windows NT 10.0; Win64; x64) AppleWebKit/537.36 (KHTML, like Gecko) Chrome/100.0.4896.75 Safari/537.36","WebKit","Chrome","100.0.4896.75","Windows","10.0","null","null","","","<p style=""font-size:64px;"">+</p>","O_2_2_O",""
"","","","","","html-keyboard-response","80","204767","0.0-2.0-4.0-0.0-0.0","40","1","2022-04-05 06:25:01","c79472ad15d8b617a4d57d5bf56a810f","202.63.76.145","Mozilla/5.0 (Windows NT 10.0; Win64; x64) AppleWebKit/537.36 (KHTML, like Gecko) Chrome/100.0.4896.75 Safari/537.36","WebKit","Chrome","100.0.4896.75","Windows","10.0","null","null","","","<p style=""font-size:64px;"">+</p>","O_4_5_P",""
"","","","","","html-keyboard-response","81","206018","0.0-2.0-4.0-0.0-1.0","40","1","2022-04-05 06:25:01","c79472ad15d8b617a4d57d5bf56a810f","202.63.76.145","Mozilla/5.0 (Windows NT 10.0; Win64; x64) AppleWebKit/537.36 (KHTML, like Gecko) Chrome/100.0.4896.75 Safari/537.36","WebKit","Chrome","100.0.4896.75","Windows","10.0","null","null","","","
                        <div class=orange>
                        <div class=""centered"">
                            <p style=""font-size: 24px""><b>53%</b></p>
                        </div>","O_4_5_P",""
"","","","","","html-keyboard-response","82","206419","0.0-2.0-4.0-0.0-0.1","40","1","2022-04-05 06:25:01","c79472ad15d8b617a4d57d5bf56a810f","202.63.76.145","Mozilla/5.0 (Windows NT 10.0; Win64; x64) AppleWebKit/537.36 (KHTML, like Gecko) Chrome/100.0.4896.75 Safari/537.36","WebKit","Chrome","100.0.4896.75","Windows","10.0","null","null","","","<p style=""font-size:64px;"">+</p>","O_4_5_P",""
"","","","","","html-keyboard-response","83","207670","0.0-2.0-4.0-0.0-1.1","40","1","2022-04-05 06:25:01","c79472ad15d8b617a4d57d5bf56a810f","202.63.76.145","Mozilla/5.0 (Windows NT 10.0; Win64; x64) AppleWebKit/537.36 (KHTML, like Gecko) Chrome/100.0.4896.75 Safari/537.36","WebKit","Chrome","100.0.4896.75","Windows","10.0","null","null","","","
                        <div class=pink>
                        <div class=""centered"">
                            <p style=""font-size: 24px""><b>52%</b></p>
                        </div>","O_4_5_P",""
"","","","","","html-keyboard-response","84","208072","0.0-2.0-4.0-0.0-0.2","40","1","2022-04-05 06:25:01","c79472ad15d8b617a4d57d5bf56a810f","202.63.76.145","Mozilla/5.0 (Windows NT 10.0; Win64; x64) AppleWebKit/537.36 (KHTML, like Gecko) Chrome/100.0.4896.75 Safari/537.36","WebKit","Chrome","100.0.4896.75","Windows","10.0","null","null","","","<p style=""font-size:64px;"">+</p>","O_4_5_P",""
"","","","","","html-keyboard-response","85","209323","0.0-2.0-4.0-0.0-1.2","40","1","2022-04-05 06:25:01","c79472ad15d8b617a4d57d5bf56a810f","202.63.76.145","Mozilla/5.0 (Windows NT 10.0; Win64; x64) AppleWebKit/537.36 (KHTML, like Gecko) Chrome/100.0.4896.75 Safari/537.36","WebKit","Chrome","100.0.4896.75","Windows","10.0","null","null","","","
                        <div class=pink>
                        <div class=""centered"">
                            <p style=""font-size: 24px""><b>53%</b></p>
                        </div>","O_4_5_P",""
"","","","","","html-keyboard-response","86","209724","0.0-2.0-4.0-0.0-0.3","40","1","2022-04-05 06:25:01","c79472ad15d8b617a4d57d5bf56a810f","202.63.76.145","Mozilla/5.0 (Windows NT 10.0; Win64; x64) AppleWebKit/537.36 (KHTML, like Gecko) Chrome/100.0.4896.75 Safari/537.36","WebKit","Chrome","100.0.4896.75","Windows","10.0","null","null","","","<p style=""font-size:64px;"">+</p>","O_4_5_P",""
"","","","","","html-keyboard-response","87","210976","0.0-2.0-4.0-0.0-1.3","40","1","2022-04-05 06:25:01","c79472ad15d8b617a4d57d5bf56a810f","202.63.76.145","Mozilla/5.0 (Windows NT 10.0; Win64; x64) AppleWebKit/537.36 (KHTML, like Gecko) Chrome/100.0.4896.75 Safari/537.36","WebKit","Chrome","100.0.4896.75","Windows","10.0","null","null","","","
                        <div class=orange>
                        <div class=""centered"">
                            <p style=""font-size: 24px""><b>55%</b></p>
                        </div>","O_4_5_P",""
"","","","","","html-keyboard-response","88","211378","0.0-2.0-4.0-0.0-0.4","40","1","2022-04-05 06:25:01","c79472ad15d8b617a4d57d5bf56a810f","202.63.76.145","Mozilla/5.0 (Windows NT 10.0; Win64; x64) AppleWebKit/537.36 (KHTML, like Gecko) Chrome/100.0.4896.75 Safari/537.36","WebKit","Chrome","100.0.4896.75","Windows","10.0","null","null","","","<p style=""font-size:64px;"">+</p>","O_4_5_P",""
"","","","","","html-keyboard-response","89","212630","0.0-2.0-4.0-0.0-1.4","40","1","2022-04-05 06:25:01","c79472ad15d8b617a4d57d5bf56a810f","202.63.76.145","Mozilla/5.0 (Windows NT 10.0; Win64; x64) AppleWebKit/537.36 (KHTML, like Gecko) Chrome/100.0.4896.75 Safari/537.36","WebKit","Chrome","100.0.4896.75","Windows","10.0","null","null","","","
                        <div class=pink>
                        <div class=""centered"">
                            <p style=""font-size: 24px""><b>53%</b></p>
                        </div>","O_4_5_P",""
"","","","","","html-keyboard-response","90","213032","0.0-2.0-4.0-0.0-0.5","40","1","2022-04-05 06:25:01","c79472ad15d8b617a4d57d5bf56a810f","202.63.76.145","Mozilla/5.0 (Windows NT 10.0; Win64; x64) AppleWebKit/537.36 (KHTML, like Gecko) Chrome/100.0.4896.75 Safari/537.36","WebKit","Chrome","100.0.4896.75","Windows","10.0","null","null","","","<p style=""font-size:64px;"">+</p>","O_4_5_P",""
"","","","","","html-keyboard-response","91","214283","0.0-2.0-4.0-0.0-1.5","40","1","2022-04-05 06:25:01","c79472ad15d8b617a4d57d5bf56a810f","202.63.76.145","Mozilla/5.0 (Windows NT 10.0; Win64; x64) AppleWebKit/537.36 (KHTML, like Gecko) Chrome/100.0.4896.75 Safari/537.36","WebKit","Chrome","100.0.4896.75","Windows","10.0","null","null","","","
                        <div class=orange>
                        <div class=""centered"">
                            <p style=""font-size: 24px""><b>54%</b></p>
                        </div>","O_4_5_P",""
"","","","","","html-keyboard-response","92","214683","0.0-2.0-4.0-1.0-0.0","40","1","2022-04-05 06:25:01","c79472ad15d8b617a4d57d5bf56a810f","202.63.76.145","Mozilla/5.0 (Windows NT 10.0; Win64; x64) AppleWebKit/537.36 (KHTML, like Gecko) Chrome/100.0.4896.75 Safari/537.36","WebKit","Chrome","100.0.4896.75","Windows","10.0","null","null","","","<p style=""font-size:64px;"">+</p>","O_4_5_P",""
"","","","","","html-keyboard-response","93","215935","0.0-2.0-4.0-1.0-1.0","40","1","2022-04-05 06:25:01","c79472ad15d8b617a4d57d5bf56a810f","202.63.76.145","Mozilla/5.0 (Windows NT 10.0; Win64; x64) AppleWebKit/537.36 (KHTML, like Gecko) Chrome/100.0.4896.75 Safari/537.36","WebKit","Chrome","100.0.4896.75","Windows","10.0","null","null","","","
                        <div class=""pink"">
                        <div class=""centered"">
                            <p style=""font-size: 24px""><b>50%</b></p>
                        </div>","O_4_5_P",""
"","","","","","html-slider-response","94","218269","0.0-2.0-4.0-2.0","40","1","2022-04-05 06:25:01","c79472ad15d8b617a4d57d5bf56a810f","202.63.76.145","Mozilla/5.0 (Windows NT 10.0; Win64; x64) AppleWebKit/537.36 (KHTML, like Gecko) Chrome/100.0.4896.75 Safari/537.36","WebKit","Chrome","100.0.4896.75","Windows","10.0","2332.5","0","","","<div style=""width: 500px; height: 100px;""><p>Place your bid for more information.</p></div>","infoBid","45"
"","","","","","html-keyboard-response","95","218670","0.0-2.0-4.0-3.0-0.0","40","1","2022-04-05 06:25:01","c79472ad15d8b617a4d57d5bf56a810f","202.63.76.145","Mozilla/5.0 (Windows NT 10.0; Win64; x64) AppleWebKit/537.36 (KHTML, like Gecko) Chrome/100.0.4896.75 Safari/537.36","WebKit","Chrome","100.0.4896.75","Windows","10.0","null","null","","","<p style=""font-size:64px;"">+</p>","O_4_5_P",""
"","","","","","html-keyboard-response","96","219920","0.0-2.0-4.0-3.0-1.0","40","1","2022-04-05 06:25:01","c79472ad15d8b617a4d57d5bf56a810f","202.63.76.145","Mozilla/5.0 (Windows NT 10.0; Win64; x64) AppleWebKit/537.36 (KHTML, like Gecko) Chrome/100.0.4896.75 Safari/537.36","WebKit","Chrome","100.0.4896.75","Windows","10.0","null","null","","","<div class=""grey"">
                <div class=""centered"">
                    <p style=""font-size: 24px""><b>???</b></p>
                </div>","O_4_5_P",""
"","","","","","html-keyboard-response","97","220355","0.0-2.0-4.0-4.0-0.0","40","1","2022-04-05 06:25:01","c79472ad15d8b617a4d57d5bf56a810f","202.63.76.145","Mozilla/5.0 (Windows NT 10.0; Win64; x64) AppleWebKit/537.36 (KHTML, like Gecko) Chrome/100.0.4896.75 Safari/537.36","WebKit","Chrome","100.0.4896.75","Windows","10.0","434.79999999701977","f","","","
                      <div class=""row"">

                          <div class=""column"">
                              <div class=""orange""></div>
                              <div class=""leftChoiceText"">
                                  <p style=""font-size: 32px""><b>F</b></p>
                              </div>
                          </div>

                          <div class=""column"">
                              <div class=""pink""></div>
                              <div class=""rightChoiceText"">
                                  <p style=""font-size: 32px""><b>J</b></p>
                              </div>
                          </div>

                      </div>

                      <div class=""centeredTop"">
                          Which colour do you<br>
                          predict will win?
                      </div>","O_4_5_P",""
"","","","","","html-keyboard-response","98","221856","0.0-2.0-4.0-4.0-1.0","40","1","2022-04-05 06:25:01","c79472ad15d8b617a4d57d5bf56a810f","202.63.76.145","Mozilla/5.0 (Windows NT 10.0; Win64; x64) AppleWebKit/537.36 (KHTML, like Gecko) Chrome/100.0.4896.75 Safari/537.36","WebKit","Chrome","100.0.4896.75","Windows","10.0","null","null","","","<p style=""font-size:64px;"">+</p>","O_4_5_P",""
"","","","","","html-keyboard-response","99","222258","0.0-2.0-5.0-0.0-0.0","40","1","2022-04-05 06:25:01","c79472ad15d8b617a4d57d5bf56a810f","202.63.76.145","Mozilla/5.0 (Windows NT 10.0; Win64; x64) AppleWebKit/537.36 (KHTML, like Gecko) Chrome/100.0.4896.75 Safari/537.36","WebKit","Chrome","100.0.4896.75","Windows","10.0","null","null","","","<p style=""font-size:64px;"">+</p>","P_6_4_O",""
"","","","","","html-keyboard-response","100","223509","0.0-2.0-5.0-0.0-1.0","40","1","2022-04-05 06:25:01","c79472ad15d8b617a4d57d5bf56a810f","202.63.76.145","Mozilla/5.0 (Windows NT 10.0; Win64; x64) AppleWebKit/537.36 (KHTML, like Gecko) Chrome/100.0.4896.75 Safari/537.36","WebKit","Chrome","100.0.4896.75","Windows","10.0","null","null","","","
                        <div class=pink>
                        <div class=""centered"">
                            <p style=""font-size: 24px""><b>54%</b></p>
                        </div>","P_6_4_O",""
"","","","","","html-keyboard-response","101","223918","0.0-2.0-5.0-0.0-0.1","40","1","2022-04-05 06:25:01","c79472ad15d8b617a4d57d5bf56a810f","202.63.76.145","Mozilla/5.0 (Windows NT 10.0; Win64; x64) AppleWebKit/537.36 (KHTML, like Gecko) Chrome/100.0.4896.75 Safari/537.36","WebKit","Chrome","100.0.4896.75","Windows","10.0","null","null","","","<p style=""font-size:64px;"">+</p>","P_6_4_O",""
"","","","","","html-keyboard-response","102","225170","0.0-2.0-5.0-0.0-1.1","40","1","2022-04-05 06:25:01","c79472ad15d8b617a4d57d5bf56a810f","202.63.76.145","Mozilla/5.0 (Windows NT 10.0; Win64; x64) AppleWebKit/537.36 (KHTML, like Gecko) Chrome/100.0.4896.75 Safari/537.36","WebKit","Chrome","100.0.4896.75","Windows","10.0","null","null","","","
                        <div class=pink>
                        <div class=""centered"">
                            <p style=""font-size: 24px""><b>55%</b></p>
                        </div>","P_6_4_O",""
"","","","","","html-keyboard-response","103","225586","0.0-2.0-5.0-0.0-0.2","40","1","2022-04-05 06:25:01","c79472ad15d8b617a4d57d5bf56a810f","202.63.76.145","Mozilla/5.0 (Windows NT 10.0; Win64; x64) AppleWebKit/537.36 (KHTML, like Gecko) Chrome/100.0.4896.75 Safari/537.36","WebKit","Chrome","100.0.4896.75","Windows","10.0","null","null","","","<p style=""font-size:64px;"">+</p>","P_6_4_O",""
"","","","","","html-keyboard-response","104","226838","0.0-2.0-5.0-0.0-1.2","40","1","2022-04-05 06:25:01","c79472ad15d8b617a4d57d5bf56a810f","202.63.76.145","Mozilla/5.0 (Windows NT 10.0; Win64; x64) AppleWebKit/537.36 (KHTML, like Gecko) Chrome/100.0.4896.75 Safari/537.36","WebKit","Chrome","100.0.4896.75","Windows","10.0","null","null","","","
                        <div class=pink>
                        <div class=""centered"">
                            <p style=""font-size: 24px""><b>54%</b></p>
                        </div>","P_6_4_O",""
"","","","","","html-keyboard-response","105","227240","0.0-2.0-5.0-0.0-0.3","40","1","2022-04-05 06:25:01","c79472ad15d8b617a4d57d5bf56a810f","202.63.76.145","Mozilla/5.0 (Windows NT 10.0; Win64; x64) AppleWebKit/537.36 (KHTML, like Gecko) Chrome/100.0.4896.75 Safari/537.36","WebKit","Chrome","100.0.4896.75","Windows","10.0","null","null","","","<p style=""font-size:64px;"">+</p>","P_6_4_O",""
"","","","","","html-keyboard-response","106","228491","0.0-2.0-5.0-0.0-1.3","40","1","2022-04-05 06:25:01","c79472ad15d8b617a4d57d5bf56a810f","202.63.76.145","Mozilla/5.0 (Windows NT 10.0; Win64; x64) AppleWebKit/537.36 (KHTML, like Gecko) Chrome/100.0.4896.75 Safari/537.36","WebKit","Chrome","100.0.4896.75","Windows","10.0","null","null","","","
                        <div class=orange>
                        <div class=""centered"">
                            <p style=""font-size: 24px""><b>52%</b></p>
                        </div>","P_6_4_O",""
"","","","","","html-keyboard-response","107","228894","0.0-2.0-5.0-0.0-0.4","40","1","2022-04-05 06:25:01","c79472ad15d8b617a4d57d5bf56a810f","202.63.76.145","Mozilla/5.0 (Windows NT 10.0; Win64; x64) AppleWebKit/537.36 (KHTML, like Gecko) Chrome/100.0.4896.75 Safari/537.36","WebKit","Chrome","100.0.4896.75","Windows","10.0","null","null","","","<p style=""font-size:64px;"">+</p>","P_6_4_O",""
"","","","","","html-keyboard-response","108","230145","0.0-2.0-5.0-0.0-1.4","40","1","2022-04-05 06:25:01","c79472ad15d8b617a4d57d5bf56a810f","202.63.76.145","Mozilla/5.0 (Windows NT 10.0; Win64; x64) AppleWebKit/537.36 (KHTML, like Gecko) Chrome/100.0.4896.75 Safari/537.36","WebKit","Chrome","100.0.4896.75","Windows","10.0","null","null","","","
                        <div class=orange>
                        <div class=""centered"">
                            <p style=""font-size: 24px""><b>53%</b></p>
                        </div>","P_6_4_O",""
"","","","","","html-keyboard-response","109","230548","0.0-2.0-5.0-0.0-0.5","40","1","2022-04-05 06:25:01","c79472ad15d8b617a4d57d5bf56a810f","202.63.76.145","Mozilla/5.0 (Windows NT 10.0; Win64; x64) AppleWebKit/537.36 (KHTML, like Gecko) Chrome/100.0.4896.75 Safari/537.36","WebKit","Chrome","100.0.4896.75","Windows","10.0","null","null","","","<p style=""font-size:64px;"">+</p>","P_6_4_O",""
"","","","","","html-keyboard-response","110","231800","0.0-2.0-5.0-0.0-1.5","40","1","2022-04-05 06:25:01","c79472ad15d8b617a4d57d5bf56a810f","202.63.76.145","Mozilla/5.0 (Windows NT 10.0; Win64; x64) AppleWebKit/537.36 (KHTML, like Gecko) Chrome/100.0.4896.75 Safari/537.36","WebKit","Chrome","100.0.4896.75","Windows","10.0","null","null","","","
                        <div class=orange>
                        <div class=""centered"">
                            <p style=""font-size: 24px""><b>52%</b></p>
                        </div>","P_6_4_O",""
"","","","","","html-keyboard-response","111","232201","0.0-2.0-5.0-1.0-0.0","40","1","2022-04-05 06:25:01","c79472ad15d8b617a4d57d5bf56a810f","202.63.76.145","Mozilla/5.0 (Windows NT 10.0; Win64; x64) AppleWebKit/537.36 (KHTML, like Gecko) Chrome/100.0.4896.75 Safari/537.36","WebKit","Chrome","100.0.4896.75","Windows","10.0","null","null","","","<p style=""font-size:64px;"">+</p>","P_6_4_O",""
"","","","","","html-keyboard-response","112","233452","0.0-2.0-5.0-1.0-1.0","40","1","2022-04-05 06:25:01","c79472ad15d8b617a4d57d5bf56a810f","202.63.76.145","Mozilla/5.0 (Windows NT 10.0; Win64; x64) AppleWebKit/537.36 (KHTML, like Gecko) Chrome/100.0.4896.75 Safari/537.36","WebKit","Chrome","100.0.4896.75","Windows","10.0","null","null","","","
                        <div class=""orange"">
                        <div class=""centered"">
                            <p style=""font-size: 24px""><b>50%</b></p>
                        </div>","P_6_4_O",""
"","","","","","html-slider-response","113","236054","0.0-2.0-5.0-2.0","40","1","2022-04-05 06:25:01","c79472ad15d8b617a4d57d5bf56a810f","202.63.76.145","Mozilla/5.0 (Windows NT 10.0; Win64; x64) AppleWebKit/537.36 (KHTML, like Gecko) Chrome/100.0.4896.75 Safari/537.36","WebKit","Chrome","100.0.4896.75","Windows","10.0","2600.900000002235","0","","","<div style=""width: 500px; height: 100px;""><p>Place your bid for more information.</p></div>","infoBid","50"
"","","","","","html-keyboard-response","114","236455","0.0-2.0-5.0-3.0-0.0","40","1","2022-04-05 06:25:01","c79472ad15d8b617a4d57d5bf56a810f","202.63.76.145","Mozilla/5.0 (Windows NT 10.0; Win64; x64) AppleWebKit/537.36 (KHTML, like Gecko) Chrome/100.0.4896.75 Safari/537.36","WebKit","Chrome","100.0.4896.75","Windows","10.0","null","null","","","<p style=""font-size:64px;"">+</p>","P_6_4_O",""
"","","","","","html-keyboard-response","115","237707","0.0-2.0-5.0-3.0-1.0","40","1","2022-04-05 06:25:01","c79472ad15d8b617a4d57d5bf56a810f","202.63.76.145","Mozilla/5.0 (Windows NT 10.0; Win64; x64) AppleWebKit/537.36 (KHTML, like Gecko) Chrome/100.0.4896.75 Safari/537.36","WebKit","Chrome","100.0.4896.75","Windows","10.0","null","null","","","<div class=""grey"">
                <div class=""centered"">
                    <p style=""font-size: 24px""><b>???</b></p>
                </div>","P_6_4_O",""
"","","","","","html-keyboard-response","116","238591","0.0-2.0-5.0-4.0-0.0","40","1","2022-04-05 06:25:01","c79472ad15d8b617a4d57d5bf56a810f","202.63.76.145","Mozilla/5.0 (Windows NT 10.0; Win64; x64) AppleWebKit/537.36 (KHTML, like Gecko) Chrome/100.0.4896.75 Safari/537.36","WebKit","Chrome","100.0.4896.75","Windows","10.0","883.1999999992549","j","","","
                      <div class=""row"">

                          <div class=""column"">
                              <div class=""orange""></div>
                              <div class=""leftChoiceText"">
                                  <p style=""font-size: 32px""><b>F</b></p>
                              </div>
                          </div>

                          <div class=""column"">
                              <div class=""pink""></div>
                              <div class=""rightChoiceText"">
                                  <p style=""font-size: 32px""><b>J</b></p>
                              </div>
                          </div>

                      </div>

                      <div class=""centeredTop"">
                          Which colour do you<br>
                          predict will win?
                      </div>","P_6_4_O",""
"","","","","","html-keyboard-response","117","240092","0.0-2.0-5.0-4.0-1.0","40","1","2022-04-05 06:25:01","c79472ad15d8b617a4d57d5bf56a810f","202.63.76.145","Mozilla/5.0 (Windows NT 10.0; Win64; x64) AppleWebKit/537.36 (KHTML, like Gecko) Chrome/100.0.4896.75 Safari/537.36","WebKit","Chrome","100.0.4896.75","Windows","10.0","null","null","","","<p style=""font-size:64px;"">+</p>","P_6_4_O",""
"","","","","","html-keyboard-response","118","240494","0.0-2.0-6.0-0.0-0.0","40","1","2022-04-05 06:25:01","c79472ad15d8b617a4d57d5bf56a810f","202.63.76.145","Mozilla/5.0 (Windows NT 10.0; Win64; x64) AppleWebKit/537.36 (KHTML, like Gecko) Chrome/100.0.4896.75 Safari/537.36","WebKit","Chrome","100.0.4896.75","Windows","10.0","null","null","","","<p style=""font-size:64px;"">+</p>","O_6_3_P",""
"","","","","","html-keyboard-response","119","241744","0.0-2.0-6.0-0.0-1.0","40","1","2022-04-05 06:25:01","c79472ad15d8b617a4d57d5bf56a810f","202.63.76.145","Mozilla/5.0 (Windows NT 10.0; Win64; x64) AppleWebKit/537.36 (KHTML, like Gecko) Chrome/100.0.4896.75 Safari/537.36","WebKit","Chrome","100.0.4896.75","Windows","10.0","null","null","","","
                        <div class=orange>
                        <div class=""centered"">
                            <p style=""font-size: 24px""><b>55%</b></p>
                        </div>","O_6_3_P",""
"","","","","","html-keyboard-response","120","242146","0.0-2.0-6.0-0.0-0.1","40","1","2022-04-05 06:25:01","c79472ad15d8b617a4d57d5bf56a810f","202.63.76.145","Mozilla/5.0 (Windows NT 10.0; Win64; x64) AppleWebKit/537.36 (KHTML, like Gecko) Chrome/100.0.4896.75 Safari/537.36","WebKit","Chrome","100.0.4896.75","Windows","10.0","null","null","","","<p style=""font-size:64px;"">+</p>","O_6_3_P",""
"","","","","","html-keyboard-response","121","243397","0.0-2.0-6.0-0.0-1.1","40","1","2022-04-05 06:25:01","c79472ad15d8b617a4d57d5bf56a810f","202.63.76.145","Mozilla/5.0 (Windows NT 10.0; Win64; x64) AppleWebKit/537.36 (KHTML, like Gecko) Chrome/100.0.4896.75 Safari/537.36","WebKit","Chrome","100.0.4896.75","Windows","10.0","null","null","","","
                        <div class=pink>
                        <div class=""centered"">
                            <p style=""font-size: 24px""><b>52%</b></p>
                        </div>","O_6_3_P",""
"","","","","","html-keyboard-response","122","243798","0.0-2.0-6.0-0.0-0.2","40","1","2022-04-05 06:25:01","c79472ad15d8b617a4d57d5bf56a810f","202.63.76.145","Mozilla/5.0 (Windows NT 10.0; Win64; x64) AppleWebKit/537.36 (KHTML, like Gecko) Chrome/100.0.4896.75 Safari/537.36","WebKit","Chrome","100.0.4896.75","Windows","10.0","null","null","","","<p style=""font-size:64px;"">+</p>","O_6_3_P",""
"","","","","","html-keyboard-response","123","245050","0.0-2.0-6.0-0.0-1.2","40","1","2022-04-05 06:25:01","c79472ad15d8b617a4d57d5bf56a810f","202.63.76.145","Mozilla/5.0 (Windows NT 10.0; Win64; x64) AppleWebKit/537.36 (KHTML, like Gecko) Chrome/100.0.4896.75 Safari/537.36","WebKit","Chrome","100.0.4896.75","Windows","10.0","null","null","","","
                        <div class=orange>
                        <div class=""centered"">
                            <p style=""font-size: 24px""><b>53%</b></p>
                        </div>","O_6_3_P",""
"","","","","","html-keyboard-response","124","245450","0.0-2.0-6.0-0.0-0.3","40","1","2022-04-05 06:25:01","c79472ad15d8b617a4d57d5bf56a810f","202.63.76.145","Mozilla/5.0 (Windows NT 10.0; Win64; x64) AppleWebKit/537.36 (KHTML, like Gecko) Chrome/100.0.4896.75 Safari/537.36","WebKit","Chrome","100.0.4896.75","Windows","10.0","null","null","","","<p style=""font-size:64px;"">+</p>","O_6_3_P",""
"","","","","","html-keyboard-response","125","246702","0.0-2.0-6.0-0.0-1.3","40","1","2022-04-05 06:25:01","c79472ad15d8b617a4d57d5bf56a810f","202.63.76.145","Mozilla/5.0 (Windows NT 10.0; Win64; x64) AppleWebKit/537.36 (KHTML, like Gecko) Chrome/100.0.4896.75 Safari/537.36","WebKit","Chrome","100.0.4896.75","Windows","10.0","null","null","","","
                        <div class=pink>
                        <div class=""centered"">
                            <p style=""font-size: 24px""><b>53%</b></p>
                        </div>","O_6_3_P",""
"","","","","","html-keyboard-response","126","247104","0.0-2.0-6.0-0.0-0.4","40","1","2022-04-05 06:25:01","c79472ad15d8b617a4d57d5bf56a810f","202.63.76.145","Mozilla/5.0 (Windows NT 10.0; Win64; x64) AppleWebKit/537.36 (KHTML, like Gecko) Chrome/100.0.4896.75 Safari/537.36","WebKit","Chrome","100.0.4896.75","Windows","10.0","null","null","","","<p style=""font-size:64px;"">+</p>","O_6_3_P",""
"","","","","","html-keyboard-response","127","248358","0.0-2.0-6.0-0.0-1.4","40","1","2022-04-05 06:25:01","c79472ad15d8b617a4d57d5bf56a810f","202.63.76.145","Mozilla/5.0 (Windows NT 10.0; Win64; x64) AppleWebKit/537.36 (KHTML, like Gecko) Chrome/100.0.4896.75 Safari/537.36","WebKit","Chrome","100.0.4896.75","Windows","10.0","null","null","","","
                        <div class=pink>
                        <div class=""centered"">
                            <p style=""font-size: 24px""><b>52%</b></p>
                        </div>","O_6_3_P",""
"","","","","","html-keyboard-response","128","248759","0.0-2.0-6.0-0.0-0.5","40","1","2022-04-05 06:25:01","c79472ad15d8b617a4d57d5bf56a810f","202.63.76.145","Mozilla/5.0 (Windows NT 10.0; Win64; x64) AppleWebKit/537.36 (KHTML, like Gecko) Chrome/100.0.4896.75 Safari/537.36","WebKit","Chrome","100.0.4896.75","Windows","10.0","null","null","","","<p style=""font-size:64px;"">+</p>","O_6_3_P",""
"","","","","","html-keyboard-response","129","250011","0.0-2.0-6.0-0.0-1.5","40","1","2022-04-05 06:25:01","c79472ad15d8b617a4d57d5bf56a810f","202.63.76.145","Mozilla/5.0 (Windows NT 10.0; Win64; x64) AppleWebKit/537.36 (KHTML, like Gecko) Chrome/100.0.4896.75 Safari/537.36","WebKit","Chrome","100.0.4896.75","Windows","10.0","null","null","","","
                        <div class=orange>
                        <div class=""centered"">
                            <p style=""font-size: 24px""><b>55%</b></p>
                        </div>","O_6_3_P",""
"","","","","","html-keyboard-response","130","250412","0.0-2.0-6.0-1.0-0.0","40","1","2022-04-05 06:25:01","c79472ad15d8b617a4d57d5bf56a810f","202.63.76.145","Mozilla/5.0 (Windows NT 10.0; Win64; x64) AppleWebKit/537.36 (KHTML, like Gecko) Chrome/100.0.4896.75 Safari/537.36","WebKit","Chrome","100.0.4896.75","Windows","10.0","null","null","","","<p style=""font-size:64px;"">+</p>","O_6_3_P",""
"","","","","","html-keyboard-response","131","251672","0.0-2.0-6.0-1.0-1.0","40","1","2022-04-05 06:25:01","c79472ad15d8b617a4d57d5bf56a810f","202.63.76.145","Mozilla/5.0 (Windows NT 10.0; Win64; x64) AppleWebKit/537.36 (KHTML, like Gecko) Chrome/100.0.4896.75 Safari/537.36","WebKit","Chrome","100.0.4896.75","Windows","10.0","null","null","","","
                        <div class=""pink"">
                        <div class=""centered"">
                            <p style=""font-size: 24px""><b>50%</b></p>
                        </div>","O_6_3_P",""
"","","","","","html-slider-response","132","254559","0.0-2.0-6.0-2.0","40","1","2022-04-05 06:25:01","c79472ad15d8b617a4d57d5bf56a810f","202.63.76.145","Mozilla/5.0 (Windows NT 10.0; Win64; x64) AppleWebKit/537.36 (KHTML, like Gecko) Chrome/100.0.4896.75 Safari/537.36","WebKit","Chrome","100.0.4896.75","Windows","10.0","2886.10000000149","0","","","<div style=""width: 500px; height: 100px;""><p>Place your bid for more information.</p></div>","infoBid","28"
"","","","","","html-keyboard-response","133","254960","0.0-2.0-6.0-3.0-0.0","40","1","2022-04-05 06:25:01","c79472ad15d8b617a4d57d5bf56a810f","202.63.76.145","Mozilla/5.0 (Windows NT 10.0; Win64; x64) AppleWebKit/537.36 (KHTML, like Gecko) Chrome/100.0.4896.75 Safari/537.36","WebKit","Chrome","100.0.4896.75","Windows","10.0","null","null","","","<p style=""font-size:64px;"">+</p>","O_6_3_P",""
"","","","","","html-keyboard-response","134","256212","0.0-2.0-6.0-3.0-1.0","40","1","2022-04-05 06:25:01","c79472ad15d8b617a4d57d5bf56a810f","202.63.76.145","Mozilla/5.0 (Windows NT 10.0; Win64; x64) AppleWebKit/537.36 (KHTML, like Gecko) Chrome/100.0.4896.75 Safari/537.36","WebKit","Chrome","100.0.4896.75","Windows","10.0","null","null","","","<div class=""grey"">
                <div class=""centered"">
                    <p style=""font-size: 24px""><b>???</b></p>
                </div>","O_6_3_P",""
"","","","","","html-keyboard-response","135","257301","0.0-2.0-6.0-4.0-0.0","40","1","2022-04-05 06:25:01","c79472ad15d8b617a4d57d5bf56a810f","202.63.76.145","Mozilla/5.0 (Windows NT 10.0; Win64; x64) AppleWebKit/537.36 (KHTML, like Gecko) Chrome/100.0.4896.75 Safari/537.36","WebKit","Chrome","100.0.4896.75","Windows","10.0","1087.800000000745","f","","","
                      <div class=""row"">

                          <div class=""column"">
                              <div class=""orange""></div>
                              <div class=""leftChoiceText"">
                                  <p style=""font-size: 32px""><b>F</b></p>
                              </div>
                          </div>

                          <div class=""column"">
                              <div class=""pink""></div>
                              <div class=""rightChoiceText"">
                                  <p style=""font-size: 32px""><b>J</b></p>
                              </div>
                          </div>

                      </div>

                      <div class=""centeredTop"">
                          Which colour do you<br>
                          predict will win?
                      </div>","O_6_3_P",""
"","","","","","html-keyboard-response","136","258802","0.0-2.0-6.0-4.0-1.0","40","1","2022-04-05 06:25:01","c79472ad15d8b617a4d57d5bf56a810f","202.63.76.145","Mozilla/5.0 (Windows NT 10.0; Win64; x64) AppleWebKit/537.36 (KHTML, like Gecko) Chrome/100.0.4896.75 Safari/537.36","WebKit","Chrome","100.0.4896.75","Windows","10.0","null","null","","","<p style=""font-size:64px;"">+</p>","O_6_3_P",""
"","","","","","html-keyboard-response","137","259204","0.0-2.0-7.0-0.0-0.0","40","1","2022-04-05 06:25:01","c79472ad15d8b617a4d57d5bf56a810f","202.63.76.145","Mozilla/5.0 (Windows NT 10.0; Win64; x64) AppleWebKit/537.36 (KHTML, like Gecko) Chrome/100.0.4896.75 Safari/537.36","WebKit","Chrome","100.0.4896.75","Windows","10.0","null","null","","","<p style=""font-size:64px;"">+</p>","P_4_4_P",""
"","","","","","html-keyboard-response","138","260455","0.0-2.0-7.0-0.0-1.0","40","1","2022-04-05 06:25:01","c79472ad15d8b617a4d57d5bf56a810f","202.63.76.145","Mozilla/5.0 (Windows NT 10.0; Win64; x64) AppleWebKit/537.36 (KHTML, like Gecko) Chrome/100.0.4896.75 Safari/537.36","WebKit","Chrome","100.0.4896.75","Windows","10.0","null","null","","","
                        <div class=orange>
                        <div class=""centered"">
                            <p style=""font-size: 24px""><b>55%</b></p>
                        </div>","P_4_4_P",""
"","","","","","html-keyboard-response","139","260856","0.0-2.0-7.0-0.0-0.1","40","1","2022-04-05 06:25:01","c79472ad15d8b617a4d57d5bf56a810f","202.63.76.145","Mozilla/5.0 (Windows NT 10.0; Win64; x64) AppleWebKit/537.36 (KHTML, like Gecko) Chrome/100.0.4896.75 Safari/537.36","WebKit","Chrome","100.0.4896.75","Windows","10.0","null","null","","","<p style=""font-size:64px;"">+</p>","P_4_4_P",""
"","","","","","html-keyboard-response","140","262109","0.0-2.0-7.0-0.0-1.1","40","1","2022-04-05 06:25:01","c79472ad15d8b617a4d57d5bf56a810f","202.63.76.145","Mozilla/5.0 (Windows NT 10.0; Win64; x64) AppleWebKit/537.36 (KHTML, like Gecko) Chrome/100.0.4896.75 Safari/537.36","WebKit","Chrome","100.0.4896.75","Windows","10.0","null","null","","","
                        <div class=orange>
                        <div class=""centered"">
                            <p style=""font-size: 24px""><b>52%</b></p>
                        </div>","P_4_4_P",""
"","","","","","html-keyboard-response","141","262510","0.0-2.0-7.0-0.0-0.2","40","1","2022-04-05 06:25:01","c79472ad15d8b617a4d57d5bf56a810f","202.63.76.145","Mozilla/5.0 (Windows NT 10.0; Win64; x64) AppleWebKit/537.36 (KHTML, like Gecko) Chrome/100.0.4896.75 Safari/537.36","WebKit","Chrome","100.0.4896.75","Windows","10.0","null","null","","","<p style=""font-size:64px;"">+</p>","P_4_4_P",""
"","","","","","html-keyboard-response","142","263761","0.0-2.0-7.0-0.0-1.2","40","1","2022-04-05 06:25:01","c79472ad15d8b617a4d57d5bf56a810f","202.63.76.145","Mozilla/5.0 (Windows NT 10.0; Win64; x64) AppleWebKit/537.36 (KHTML, like Gecko) Chrome/100.0.4896.75 Safari/537.36","WebKit","Chrome","100.0.4896.75","Windows","10.0","null","null","","","
                        <div class=orange>
                        <div class=""centered"">
                            <p style=""font-size: 24px""><b>52%</b></p>
                        </div>","P_4_4_P",""
"","","","","","html-keyboard-response","143","264162","0.0-2.0-7.0-0.0-0.3","40","1","2022-04-05 06:25:01","c79472ad15d8b617a4d57d5bf56a810f","202.63.76.145","Mozilla/5.0 (Windows NT 10.0; Win64; x64) AppleWebKit/537.36 (KHTML, like Gecko) Chrome/100.0.4896.75 Safari/537.36","WebKit","Chrome","100.0.4896.75","Windows","10.0","null","null","","","<p style=""font-size:64px;"">+</p>","P_4_4_P",""
"","","","","","html-keyboard-response","144","265413","0.0-2.0-7.0-0.0-1.3","40","1","2022-04-05 06:25:01","c79472ad15d8b617a4d57d5bf56a810f","202.63.76.145","Mozilla/5.0 (Windows NT 10.0; Win64; x64) AppleWebKit/537.36 (KHTML, like Gecko) Chrome/100.0.4896.75 Safari/537.36","WebKit","Chrome","100.0.4896.75","Windows","10.0","null","null","","","
                        <div class=pink>
                        <div class=""centered"">
                            <p style=""font-size: 24px""><b>54%</b></p>
                        </div>","P_4_4_P",""
"","","","","","html-keyboard-response","145","265815","0.0-2.0-7.0-0.0-0.4","40","1","2022-04-05 06:25:01","c79472ad15d8b617a4d57d5bf56a810f","202.63.76.145","Mozilla/5.0 (Windows NT 10.0; Win64; x64) AppleWebKit/537.36 (KHTML, like Gecko) Chrome/100.0.4896.75 Safari/537.36","WebKit","Chrome","100.0.4896.75","Windows","10.0","null","null","","","<p style=""font-size:64px;"">+</p>","P_4_4_P",""
"","","","","","html-keyboard-response","146","267066","0.0-2.0-7.0-0.0-1.4","40","1","2022-04-05 06:25:01","c79472ad15d8b617a4d57d5bf56a810f","202.63.76.145","Mozilla/5.0 (Windows NT 10.0; Win64; x64) AppleWebKit/537.36 (KHTML, like Gecko) Chrome/100.0.4896.75 Safari/537.36","WebKit","Chrome","100.0.4896.75","Windows","10.0","null","null","","","
                        <div class=pink>
                        <div class=""centered"">
                            <p style=""font-size: 24px""><b>54%</b></p>
                        </div>","P_4_4_P",""
"","","","","","html-keyboard-response","147","267467","0.0-2.0-7.0-0.0-0.5","40","1","2022-04-05 06:25:01","c79472ad15d8b617a4d57d5bf56a810f","202.63.76.145","Mozilla/5.0 (Windows NT 10.0; Win64; x64) AppleWebKit/537.36 (KHTML, like Gecko) Chrome/100.0.4896.75 Safari/537.36","WebKit","Chrome","100.0.4896.75","Windows","10.0","null","null","","","<p style=""font-size:64px;"">+</p>","P_4_4_P",""
"","","","","","html-keyboard-response","148","268718","0.0-2.0-7.0-0.0-1.5","40","1","2022-04-05 06:25:01","c79472ad15d8b617a4d57d5bf56a810f","202.63.76.145","Mozilla/5.0 (Windows NT 10.0; Win64; x64) AppleWebKit/537.36 (KHTML, like Gecko) Chrome/100.0.4896.75 Safari/537.36","WebKit","Chrome","100.0.4896.75","Windows","10.0","null","null","","","
                        <div class=pink>
                        <div class=""centered"">
                            <p style=""font-size: 24px""><b>55%</b></p>
                        </div>","P_4_4_P",""
"","","","","","html-keyboard-response","149","269120","0.0-2.0-7.0-1.0-0.0","40","1","2022-04-05 06:25:01","c79472ad15d8b617a4d57d5bf56a810f","202.63.76.145","Mozilla/5.0 (Windows NT 10.0; Win64; x64) AppleWebKit/537.36 (KHTML, like Gecko) Chrome/100.0.4896.75 Safari/537.36","WebKit","Chrome","100.0.4896.75","Windows","10.0","null","null","","","<p style=""font-size:64px;"">+</p>","P_4_4_P",""
"","","","","","html-keyboard-response","150","270371","0.0-2.0-7.0-1.0-1.0","40","1","2022-04-05 06:25:01","c79472ad15d8b617a4d57d5bf56a810f","202.63.76.145","Mozilla/5.0 (Windows NT 10.0; Win64; x64) AppleWebKit/537.36 (KHTML, like Gecko) Chrome/100.0.4896.75 Safari/537.36","WebKit","Chrome","100.0.4896.75","Windows","10.0","null","null","","","
                        <div class=""pink"">
                        <div class=""centered"">
                            <p style=""font-size: 24px""><b>50%</b></p>
                        </div>","P_4_4_P",""
"","","","","","html-slider-response","151","272087","0.0-2.0-7.0-2.0","40","1","2022-04-05 06:25:01","c79472ad15d8b617a4d57d5bf56a810f","202.63.76.145","Mozilla/5.0 (Windows NT 10.0; Win64; x64) AppleWebKit/537.36 (KHTML, like Gecko) Chrome/100.0.4896.75 Safari/537.36","WebKit","Chrome","100.0.4896.75","Windows","10.0","1715.199999999255","0","","","<div style=""width: 500px; height: 100px;""><p>Place your bid for more information.</p></div>","infoBid","32"
"","","","","","html-keyboard-response","152","272490","0.0-2.0-7.0-3.0-0.0","40","1","2022-04-05 06:25:01","c79472ad15d8b617a4d57d5bf56a810f","202.63.76.145","Mozilla/5.0 (Windows NT 10.0; Win64; x64) AppleWebKit/537.36 (KHTML, like Gecko) Chrome/100.0.4896.75 Safari/537.36","WebKit","Chrome","100.0.4896.75","Windows","10.0","null","null","","","<p style=""font-size:64px;"">+</p>","P_4_4_P",""
"","","","","","html-keyboard-response","153","273741","0.0-2.0-7.0-3.0-1.0","40","1","2022-04-05 06:25:01","c79472ad15d8b617a4d57d5bf56a810f","202.63.76.145","Mozilla/5.0 (Windows NT 10.0; Win64; x64) AppleWebKit/537.36 (KHTML, like Gecko) Chrome/100.0.4896.75 Safari/537.36","WebKit","Chrome","100.0.4896.75","Windows","10.0","null","null","","","<div class=""grey"">
                <div class=""centered"">
                    <p style=""font-size: 24px""><b>???</b></p>
                </div>","P_4_4_P",""
"","","","","","html-keyboard-response","154","274954","0.0-2.0-7.0-4.0-0.0","40","1","2022-04-05 06:25:01","c79472ad15d8b617a4d57d5bf56a810f","202.63.76.145","Mozilla/5.0 (Windows NT 10.0; Win64; x64) AppleWebKit/537.36 (KHTML, like Gecko) Chrome/100.0.4896.75 Safari/537.36","WebKit","Chrome","100.0.4896.75","Windows","10.0","1211.699999999255","j","","","
                      <div class=""row"">

                          <div class=""column"">
                              <div class=""orange""></div>
                              <div class=""leftChoiceText"">
                                  <p style=""font-size: 32px""><b>F</b></p>
                              </div>
                          </div>

                          <div class=""column"">
                              <div class=""pink""></div>
                              <div class=""rightChoiceText"">
                                  <p style=""font-size: 32px""><b>J</b></p>
                              </div>
                          </div>

                      </div>

                      <div class=""centeredTop"">
                          Which colour do you<br>
                          predict will win?
                      </div>","P_4_4_P",""
"","","","","","html-keyboard-response","155","276455","0.0-2.0-7.0-4.0-1.0","40","1","2022-04-05 06:25:01","c79472ad15d8b617a4d57d5bf56a810f","202.63.76.145","Mozilla/5.0 (Windows NT 10.0; Win64; x64) AppleWebKit/537.36 (KHTML, like Gecko) Chrome/100.0.4896.75 Safari/537.36","WebKit","Chrome","100.0.4896.75","Windows","10.0","null","null","","","<p style=""font-size:64px;"">+</p>","P_4_4_P",""
"","","","","","html-keyboard-response","156","278874","0.0-2.0-8.0","40","1","2022-04-05 06:25:01","c79472ad15d8b617a4d57d5bf56a810f","202.63.76.145","Mozilla/5.0 (Windows NT 10.0; Win64; x64) AppleWebKit/537.36 (KHTML, like Gecko) Chrome/100.0.4896.75 Safari/537.36","WebKit","Chrome","100.0.4896.75","Windows","10.0","2418.60000000149"," ","","","This is the end of the practice trials.<br><br>
        Press spacebar to begin the experiment.","",""
"","","","","","html-keyboard-response","157","279276","0.0-2.0-9.0-0.0-0.0","40","1","2022-04-05 06:25:01","c79472ad15d8b617a4d57d5bf56a810f","202.63.76.145","Mozilla/5.0 (Windows NT 10.0; Win64; x64) AppleWebKit/537.36 (KHTML, like Gecko) Chrome/100.0.4896.75 Safari/537.36","WebKit","Chrome","100.0.4896.75","Windows","10.0","null","null","","","<p style=""font-size:64px;"">+</p>","Z_6_P",""
"","","","","","html-keyboard-response","158","280528","0.0-2.0-9.0-0.0-1.0","40","1","2022-04-05 06:25:01","c79472ad15d8b617a4d57d5bf56a810f","202.63.76.145","Mozilla/5.0 (Windows NT 10.0; Win64; x64) AppleWebKit/537.36 (KHTML, like Gecko) Chrome/100.0.4896.75 Safari/537.36","WebKit","Chrome","100.0.4896.75","Windows","10.0","null","null","","","
                        <div class=pink>
                        <div class=""centered"">
                            <p style=""font-size: 24px""><b>54%</b></p>
                        </div>","Z_6_P",""
"","","","","","html-keyboard-response","159","280930","0.0-2.0-9.0-0.0-0.1","40","1","2022-04-05 06:25:01","c79472ad15d8b617a4d57d5bf56a810f","202.63.76.145","Mozilla/5.0 (Windows NT 10.0; Win64; x64) AppleWebKit/537.36 (KHTML, like Gecko) Chrome/100.0.4896.75 Safari/537.36","WebKit","Chrome","100.0.4896.75","Windows","10.0","null","null","","","<p style=""font-size:64px;"">+</p>","Z_6_P",""
"","","","","","html-keyboard-response","160","282181","0.0-2.0-9.0-0.0-1.1","40","1","2022-04-05 06:25:01","c79472ad15d8b617a4d57d5bf56a810f","202.63.76.145","Mozilla/5.0 (Windows NT 10.0; Win64; x64) AppleWebKit/537.36 (KHTML, like Gecko) Chrome/100.0.4896.75 Safari/537.36","WebKit","Chrome","100.0.4896.75","Windows","10.0","null","null","","","
                        <div class=pink>
                        <div class=""centered"">
                            <p style=""font-size: 24px""><b>55%</b></p>
                        </div>","Z_6_P",""
"","","","","","html-keyboard-response","161","282584","0.0-2.0-9.0-0.0-0.2","40","1","2022-04-05 06:25:01","c79472ad15d8b617a4d57d5bf56a810f","202.63.76.145","Mozilla/5.0 (Windows NT 10.0; Win64; x64) AppleWebKit/537.36 (KHTML, like Gecko) Chrome/100.0.4896.75 Safari/537.36","WebKit","Chrome","100.0.4896.75","Windows","10.0","null","null","","","<p style=""font-size:64px;"">+</p>","Z_6_P",""
"","","","","","html-keyboard-response","162","283836","0.0-2.0-9.0-0.0-1.2","40","1","2022-04-05 06:25:01","c79472ad15d8b617a4d57d5bf56a810f","202.63.76.145","Mozilla/5.0 (Windows NT 10.0; Win64; x64) AppleWebKit/537.36 (KHTML, like Gecko) Chrome/100.0.4896.75 Safari/537.36","WebKit","Chrome","100.0.4896.75","Windows","10.0","null","null","","","
                        <div class=orange>
                        <div class=""centered"">
                            <p style=""font-size: 24px""><b>55%</b></p>
                        </div>","Z_6_P",""
"","","","","","html-keyboard-response","163","284237","0.0-2.0-9.0-0.0-0.3","40","1","2022-04-05 06:25:01","c79472ad15d8b617a4d57d5bf56a810f","202.63.76.145","Mozilla/5.0 (Windows NT 10.0; Win64; x64) AppleWebKit/537.36 (KHTML, like Gecko) Chrome/100.0.4896.75 Safari/537.36","WebKit","Chrome","100.0.4896.75","Windows","10.0","null","null","","","<p style=""font-size:64px;"">+</p>","Z_6_P",""
"","","","","","html-keyboard-response","164","285488","0.0-2.0-9.0-0.0-1.3","40","1","2022-04-05 06:25:01","c79472ad15d8b617a4d57d5bf56a810f","202.63.76.145","Mozilla/5.0 (Windows NT 10.0; Win64; x64) AppleWebKit/537.36 (KHTML, like Gecko) Chrome/100.0.4896.75 Safari/537.36","WebKit","Chrome","100.0.4896.75","Windows","10.0","null","null","","","
                        <div class=orange>
                        <div class=""centered"">
                            <p style=""font-size: 24px""><b>53%</b></p>
                        </div>","Z_6_P",""
"","","","","","html-keyboard-response","165","285889","0.0-2.0-9.0-0.0-0.4","40","1","2022-04-05 06:25:01","c79472ad15d8b617a4d57d5bf56a810f","202.63.76.145","Mozilla/5.0 (Windows NT 10.0; Win64; x64) AppleWebKit/537.36 (KHTML, like Gecko) Chrome/100.0.4896.75 Safari/537.36","WebKit","Chrome","100.0.4896.75","Windows","10.0","null","null","","","<p style=""font-size:64px;"">+</p>","Z_6_P",""
"","","","","","html-keyboard-response","166","287141","0.0-2.0-9.0-0.0-1.4","40","1","2022-04-05 06:25:01","c79472ad15d8b617a4d57d5bf56a810f","202.63.76.145","Mozilla/5.0 (Windows NT 10.0; Win64; x64) AppleWebKit/537.36 (KHTML, like Gecko) Chrome/100.0.4896.75 Safari/537.36","WebKit","Chrome","100.0.4896.75","Windows","10.0","null","null","","","
                        <div class=orange>
                        <div class=""centered"">
                            <p style=""font-size: 24px""><b>55%</b></p>
                        </div>","Z_6_P",""
"","","","","","html-keyboard-response","167","287542","0.0-2.0-9.0-0.0-0.5","40","1","2022-04-05 06:25:01","c79472ad15d8b617a4d57d5bf56a810f","202.63.76.145","Mozilla/5.0 (Windows NT 10.0; Win64; x64) AppleWebKit/537.36 (KHTML, like Gecko) Chrome/100.0.4896.75 Safari/537.36","WebKit","Chrome","100.0.4896.75","Windows","10.0","null","null","","","<p style=""font-size:64px;"">+</p>","Z_6_P",""
"","","","","","html-keyboard-response","168","288794","0.0-2.0-9.0-0.0-1.5","40","1","2022-04-05 06:25:01","c79472ad15d8b617a4d57d5bf56a810f","202.63.76.145","Mozilla/5.0 (Windows NT 10.0; Win64; x64) AppleWebKit/537.36 (KHTML, like Gecko) Chrome/100.0.4896.75 Safari/537.36","WebKit","Chrome","100.0.4896.75","Windows","10.0","null","null","","","
                        <div class=pink>
                        <div class=""centered"">
                            <p style=""font-size: 24px""><b>54%</b></p>
                        </div>","Z_6_P",""
"","","","","","html-keyboard-response","169","289195","0.0-2.0-9.0-1.0-0.0","40","1","2022-04-05 06:25:01","c79472ad15d8b617a4d57d5bf56a810f","202.63.76.145","Mozilla/5.0 (Windows NT 10.0; Win64; x64) AppleWebKit/537.36 (KHTML, like Gecko) Chrome/100.0.4896.75 Safari/537.36","WebKit","Chrome","100.0.4896.75","Windows","10.0","null","null","","","<p style=""font-size:64px;"">+</p>","Z_6_P",""
"","","","","","html-keyboard-response","170","290446","0.0-2.0-9.0-1.0-1.0","40","1","2022-04-05 06:25:01","c79472ad15d8b617a4d57d5bf56a810f","202.63.76.145","Mozilla/5.0 (Windows NT 10.0; Win64; x64) AppleWebKit/537.36 (KHTML, like Gecko) Chrome/100.0.4896.75 Safari/537.36","WebKit","Chrome","100.0.4896.75","Windows","10.0","null","null","","","
                        <div class=""pink"">
                        <div class=""centered"">
                            <p style=""font-size: 24px""><b>50%</b></p>
                        </div>","Z_6_P",""
"","","","","","html-slider-response","171","294244","0.0-2.0-9.0-2.0","40","1","2022-04-05 06:25:01","c79472ad15d8b617a4d57d5bf56a810f","202.63.76.145","Mozilla/5.0 (Windows NT 10.0; Win64; x64) AppleWebKit/537.36 (KHTML, like Gecko) Chrome/100.0.4896.75 Safari/537.36","WebKit","Chrome","100.0.4896.75","Windows","10.0","3797.39999999851","27","","","<div style=""width: 500px; height: 100px;""><p>Place your bid for more information.</p></div>","infoBid","14"
"","","","","","html-keyboard-response","172","294647","0.0-2.0-9.0-3.0-0.0","40","1","2022-04-05 06:25:01","c79472ad15d8b617a4d57d5bf56a810f","202.63.76.145","Mozilla/5.0 (Windows NT 10.0; Win64; x64) AppleWebKit/537.36 (KHTML, like Gecko) Chrome/100.0.4896.75 Safari/537.36","WebKit","Chrome","100.0.4896.75","Windows","10.0","null","null","","","<p style=""font-size:64px;"">+</p>","Z_6_P",""
"","","","","","html-keyboard-response","173","295898","0.0-2.0-9.0-3.0-1.0","40","1","2022-04-05 06:25:01","c79472ad15d8b617a4d57d5bf56a810f","202.63.76.145","Mozilla/5.0 (Windows NT 10.0; Win64; x64) AppleWebKit/537.36 (KHTML, like Gecko) Chrome/100.0.4896.75 Safari/537.36","WebKit","Chrome","100.0.4896.75","Windows","10.0","null","null","","","<div class=pink>
                <div class=""centered"">
                    <p style=""font-size: 24px""><b>51%</b></p>
                </div>","Z_6_P",""
"","","","","","html-keyboard-response","174","296775","0.0-2.0-9.0-4.0-0.0","40","1","2022-04-05 06:25:01","c79472ad15d8b617a4d57d5bf56a810f","202.63.76.145","Mozilla/5.0 (Windows NT 10.0; Win64; x64) AppleWebKit/537.36 (KHTML, like Gecko) Chrome/100.0.4896.75 Safari/537.36","WebKit","Chrome","100.0.4896.75","Windows","10.0","875.5999999977648","j","","","
                      <div class=""row"">

                          <div class=""column"">
                              <div class=""orange""></div>
                              <div class=""leftChoiceText"">
                                  <p style=""font-size: 32px""><b>F</b></p>
                              </div>
                          </div>

                          <div class=""column"">
                              <div class=""pink""></div>
                              <div class=""rightChoiceText"">
                                  <p style=""font-size: 32px""><b>J</b></p>
                              </div>
                          </div>

                      </div>

                      <div class=""centeredTop"">
                          Which colour do you<br>
                          predict will win?
                      </div>","Z_6_P",""
"","","","","","html-keyboard-response","175","298276","0.0-2.0-9.0-4.0-1.0","40","1","2022-04-05 06:25:01","c79472ad15d8b617a4d57d5bf56a810f","202.63.76.145","Mozilla/5.0 (Windows NT 10.0; Win64; x64) AppleWebKit/537.36 (KHTML, like Gecko) Chrome/100.0.4896.75 Safari/537.36","WebKit","Chrome","100.0.4896.75","Windows","10.0","null","null","","","<p style=""font-size:64px;"">+</p>","Z_6_P",""
"","","","","","html-keyboard-response","176","298678","0.0-2.0-10.0-0.0-0.0","40","1","2022-04-05 06:25:01","c79472ad15d8b617a4d57d5bf56a810f","202.63.76.145","Mozilla/5.0 (Windows NT 10.0; Win64; x64) AppleWebKit/537.36 (KHTML, like Gecko) Chrome/100.0.4896.75 Safari/537.36","WebKit","Chrome","100.0.4896.75","Windows","10.0","null","null","","","<p style=""font-size:64px;"">+</p>","O_2_4_P",""
"","","","","","html-keyboard-response","177","299929","0.0-2.0-10.0-0.0-1.0","40","1","2022-04-05 06:25:01","c79472ad15d8b617a4d57d5bf56a810f","202.63.76.145","Mozilla/5.0 (Windows NT 10.0; Win64; x64) AppleWebKit/537.36 (KHTML, like Gecko) Chrome/100.0.4896.75 Safari/537.36","WebKit","Chrome","100.0.4896.75","Windows","10.0","null","null","","","
                        <div class=pink>
                        <div class=""centered"">
                            <p style=""font-size: 24px""><b>52%</b></p>
                        </div>","O_2_4_P",""
"","","","","","html-keyboard-response","178","300331","0.0-2.0-10.0-0.0-0.1","40","1","2022-04-05 06:25:01","c79472ad15d8b617a4d57d5bf56a810f","202.63.76.145","Mozilla/5.0 (Windows NT 10.0; Win64; x64) AppleWebKit/537.36 (KHTML, like Gecko) Chrome/100.0.4896.75 Safari/537.36","WebKit","Chrome","100.0.4896.75","Windows","10.0","null","null","","","<p style=""font-size:64px;"">+</p>","O_2_4_P",""
"","","","","","html-keyboard-response","179","301582","0.0-2.0-10.0-0.0-1.1","40","1","2022-04-05 06:25:01","c79472ad15d8b617a4d57d5bf56a810f","202.63.76.145","Mozilla/5.0 (Windows NT 10.0; Win64; x64) AppleWebKit/537.36 (KHTML, like Gecko) Chrome/100.0.4896.75 Safari/537.36","WebKit","Chrome","100.0.4896.75","Windows","10.0","null","null","","","
                        <div class=pink>
                        <div class=""centered"">
                            <p style=""font-size: 24px""><b>55%</b></p>
                        </div>","O_2_4_P",""
"","","","","","html-keyboard-response","180","301983","0.0-2.0-10.0-0.0-0.2","40","1","2022-04-05 06:25:01","c79472ad15d8b617a4d57d5bf56a810f","202.63.76.145","Mozilla/5.0 (Windows NT 10.0; Win64; x64) AppleWebKit/537.36 (KHTML, like Gecko) Chrome/100.0.4896.75 Safari/537.36","WebKit","Chrome","100.0.4896.75","Windows","10.0","null","null","","","<p style=""font-size:64px;"">+</p>","O_2_4_P",""
"","","","","","html-keyboard-response","181","303235","0.0-2.0-10.0-0.0-1.2","40","1","2022-04-05 06:25:01","c79472ad15d8b617a4d57d5bf56a810f","202.63.76.145","Mozilla/5.0 (Windows NT 10.0; Win64; x64) AppleWebKit/537.36 (KHTML, like Gecko) Chrome/100.0.4896.75 Safari/537.36","WebKit","Chrome","100.0.4896.75","Windows","10.0","null","null","","","
                        <div class=orange>
                        <div class=""centered"">
                            <p style=""font-size: 24px""><b>55%</b></p>
                        </div>","O_2_4_P",""
"","","","","","html-keyboard-response","182","303646","0.0-2.0-10.0-0.0-0.3","40","1","2022-04-05 06:25:01","c79472ad15d8b617a4d57d5bf56a810f","202.63.76.145","Mozilla/5.0 (Windows NT 10.0; Win64; x64) AppleWebKit/537.36 (KHTML, like Gecko) Chrome/100.0.4896.75 Safari/537.36","WebKit","Chrome","100.0.4896.75","Windows","10.0","null","null","","","<p style=""font-size:64px;"">+</p>","O_2_4_P",""
"","","","","","html-keyboard-response","183","304897","0.0-2.0-10.0-0.0-1.3","40","1","2022-04-05 06:25:01","c79472ad15d8b617a4d57d5bf56a810f","202.63.76.145","Mozilla/5.0 (Windows NT 10.0; Win64; x64) AppleWebKit/537.36 (KHTML, like Gecko) Chrome/100.0.4896.75 Safari/537.36","WebKit","Chrome","100.0.4896.75","Windows","10.0","null","null","","","
                        <div class=orange>
                        <div class=""centered"">
                            <p style=""font-size: 24px""><b>54%</b></p>
                        </div>","O_2_4_P",""
"","","","","","html-keyboard-response","184","305298","0.0-2.0-10.0-0.0-0.4","40","1","2022-04-05 06:25:01","c79472ad15d8b617a4d57d5bf56a810f","202.63.76.145","Mozilla/5.0 (Windows NT 10.0; Win64; x64) AppleWebKit/537.36 (KHTML, like Gecko) Chrome/100.0.4896.75 Safari/537.36","WebKit","Chrome","100.0.4896.75","Windows","10.0","null","null","","","<p style=""font-size:64px;"">+</p>","O_2_4_P",""
"","","","","","html-keyboard-response","185","306549","0.0-2.0-10.0-0.0-1.4","40","1","2022-04-05 06:25:01","c79472ad15d8b617a4d57d5bf56a810f","202.63.76.145","Mozilla/5.0 (Windows NT 10.0; Win64; x64) AppleWebKit/537.36 (KHTML, like Gecko) Chrome/100.0.4896.75 Safari/537.36","WebKit","Chrome","100.0.4896.75","Windows","10.0","null","null","","","
                        <div class=pink>
                        <div class=""centered"">
                            <p style=""font-size: 24px""><b>52%</b></p>
                        </div>","O_2_4_P",""
"","","","","","html-keyboard-response","186","306952","0.0-2.0-10.0-0.0-0.5","40","1","2022-04-05 06:25:01","c79472ad15d8b617a4d57d5bf56a810f","202.63.76.145","Mozilla/5.0 (Windows NT 10.0; Win64; x64) AppleWebKit/537.36 (KHTML, like Gecko) Chrome/100.0.4896.75 Safari/537.36","WebKit","Chrome","100.0.4896.75","Windows","10.0","null","null","","","<p style=""font-size:64px;"">+</p>","O_2_4_P",""
"","","","","","html-keyboard-response","187","308204","0.0-2.0-10.0-0.0-1.5","40","1","2022-04-05 06:25:01","c79472ad15d8b617a4d57d5bf56a810f","202.63.76.145","Mozilla/5.0 (Windows NT 10.0; Win64; x64) AppleWebKit/537.36 (KHTML, like Gecko) Chrome/100.0.4896.75 Safari/537.36","WebKit","Chrome","100.0.4896.75","Windows","10.0","null","null","","","
                        <div class=orange>
                        <div class=""centered"">
                            <p style=""font-size: 24px""><b>52%</b></p>
                        </div>","O_2_4_P",""
"","","","","","html-keyboard-response","188","308606","0.0-2.0-10.0-1.0-0.0","40","1","2022-04-05 06:25:01","c79472ad15d8b617a4d57d5bf56a810f","202.63.76.145","Mozilla/5.0 (Windows NT 10.0; Win64; x64) AppleWebKit/537.36 (KHTML, like Gecko) Chrome/100.0.4896.75 Safari/537.36","WebKit","Chrome","100.0.4896.75","Windows","10.0","null","null","","","<p style=""font-size:64px;"">+</p>","O_2_4_P",""
"","","","","","html-keyboard-response","189","309864","0.0-2.0-10.0-1.0-1.0","40","1","2022-04-05 06:25:01","c79472ad15d8b617a4d57d5bf56a810f","202.63.76.145","Mozilla/5.0 (Windows NT 10.0; Win64; x64) AppleWebKit/537.36 (KHTML, like Gecko) Chrome/100.0.4896.75 Safari/537.36","WebKit","Chrome","100.0.4896.75","Windows","10.0","null","null","","","
                        <div class=""pink"">
                        <div class=""centered"">
                            <p style=""font-size: 24px""><b>50%</b></p>
                        </div>","O_2_4_P",""
"","","","","","html-slider-response","190","311748","0.0-2.0-10.0-2.0","40","1","2022-04-05 06:25:01","c79472ad15d8b617a4d57d5bf56a810f","202.63.76.145","Mozilla/5.0 (Windows NT 10.0; Win64; x64) AppleWebKit/537.36 (KHTML, like Gecko) Chrome/100.0.4896.75 Safari/537.36","WebKit","Chrome","100.0.4896.75","Windows","10.0","1883.199999999255","0","","","<div style=""width: 500px; height: 100px;""><p>Place your bid for more information.</p></div>","infoBid","38"
"","","","","","html-keyboard-response","191","312151","0.0-2.0-10.0-3.0-0.0","40","1","2022-04-05 06:25:01","c79472ad15d8b617a4d57d5bf56a810f","202.63.76.145","Mozilla/5.0 (Windows NT 10.0; Win64; x64) AppleWebKit/537.36 (KHTML, like Gecko) Chrome/100.0.4896.75 Safari/537.36","WebKit","Chrome","100.0.4896.75","Windows","10.0","null","null","","","<p style=""font-size:64px;"">+</p>","O_2_4_P",""
"","","","","","html-keyboard-response","192","313412","0.0-2.0-10.0-3.0-1.0","40","1","2022-04-05 06:25:01","c79472ad15d8b617a4d57d5bf56a810f","202.63.76.145","Mozilla/5.0 (Windows NT 10.0; Win64; x64) AppleWebKit/537.36 (KHTML, like Gecko) Chrome/100.0.4896.75 Safari/537.36","WebKit","Chrome","100.0.4896.75","Windows","10.0","null","null","","","<div class=""grey"">
                <div class=""centered"">
                    <p style=""font-size: 24px""><b>???</b></p>
                </div>","O_2_4_P",""
"","","","","","html-keyboard-response","193","314421","0.0-2.0-10.0-4.0-0.0","40","1","2022-04-05 06:25:01","c79472ad15d8b617a4d57d5bf56a810f","202.63.76.145","Mozilla/5.0 (Windows NT 10.0; Win64; x64) AppleWebKit/537.36 (KHTML, like Gecko) Chrome/100.0.4896.75 Safari/537.36","WebKit","Chrome","100.0.4896.75","Windows","10.0","1007.3999999985099","f","","","
                      <div class=""row"">

                          <div class=""column"">
                              <div class=""orange""></div>
                              <div class=""leftChoiceText"">
                                  <p style=""font-size: 32px""><b>F</b></p>
                              </div>
                          </div>

                          <div class=""column"">
                              <div class=""pink""></div>
                              <div class=""rightChoiceText"">
                                  <p style=""font-size: 32px""><b>J</b></p>
                              </div>
                          </div>

                      </div>

                      <div class=""centeredTop"">
                          Which colour do you<br>
                          predict will win?
                      </div>","O_2_4_P",""
