"success","timeout","failed_images","failed_audio","failed_video","trial_type","trial_index","time_elapsed","internal_node_id","run_id","condition","recorded_at","source_code_version","ip","user_agent","device","browser","browser_version","platform","platform_version","rt","response","question_order","view_history","stimulus","trial_name","slider_start"
"true","false","[]","[]","[]","preload","0","2074","0.0-0.0","14","1","2022-04-01 08:04:32","c79472ad15d8b617a4d57d5bf56a810f","116.7.221.23","Mozilla/5.0 (Windows NT 10.0; Win64; x64) AppleWebKit/537.36 (KHTML, like Gecko) Chrome/100.0.4896.60 Safari/537.36","WebKit","Chrome","100.0.4896.60","Windows","10.0","","","","","","",""
"","","","","","survey-multi-choice","1","6071","0.0-1.0-0.0","14","1","2022-04-01 08:04:32","c79472ad15d8b617a4d57d5bf56a810f","116.7.221.23","Mozilla/5.0 (Windows NT 10.0; Win64; x64) AppleWebKit/537.36 (KHTML, like Gecko) Chrome/100.0.4896.60 Safari/537.36","WebKit","Chrome","100.0.4896.60","Windows","10.0","3995.5","{""Gender"":""Male""}","[0]","","","",""
"","","","","","survey-text","2","8393","0.0-1.0-1.0","14","1","2022-04-01 08:04:32","c79472ad15d8b617a4d57d5bf56a810f","116.7.221.23","Mozilla/5.0 (Windows NT 10.0; Win64; x64) AppleWebKit/537.36 (KHTML, like Gecko) Chrome/100.0.4896.60 Safari/537.36","WebKit","Chrome","100.0.4896.60","Windows","10.0","2319.9000000059605","{""Age"":""22""}","","","","",""
"","","","","","instructions","3","294606","0.0-1.0-2.0","14","1","2022-04-01 08:04:32","c79472ad15d8b617a4d57d5bf56a810f","116.7.221.23","Mozilla/5.0 (Windows NT 10.0; Win64; x64) AppleWebKit/537.36 (KHTML, like Gecko) Chrome/100.0.4896.60 Safari/537.36","WebKit","Chrome","100.0.4896.60","Windows","10.0","286211.90000000596","","","[{""page_index"":0,""viewing_time"":18986.29999999702},{""page_index"":1,""viewing_time"":14484.800000011921},{""page_index"":2,""viewing_time"":50268.89999999106},{""page_index"":3,""viewing_time"":10454.20000000298},{""page_index"":4,""viewing_time"":18945},{""page_index"":5,""viewing_time"":22164.29999999702},{""page_index"":6,""viewing_time"":12984.70000000298},{""page_index"":7,""viewing_time"":48008},{""page_index"":8,""viewing_time"":7907.9000000059605},{""page_index"":9,""viewing_time"":8565.59999999404},{""page_index"":10,""viewing_time"":7347.5},{""page_index"":11,""viewing_time"":21722.20000000298},{""page_index"":12,""viewing_time"":23086.89999999106},{""page_index"":11,""viewing_time"":192},{""page_index"":10,""viewing_time"":866},{""page_index"":9,""viewing_time"":364},{""page_index"":8,""viewing_time"":689.8000000119209},{""page_index"":7,""viewing_time"":178.09999999403954},{""page_index"":6,""viewing_time"":546.0999999940395},{""page_index"":5,""viewing_time"":1043.9000000059605},{""page_index"":4,""viewing_time"":1614.2000000029802},{""page_index"":3,""viewing_time"":1168.8999999910593},{""page_index"":2,""viewing_time"":955.9000000059605},{""page_index"":1,""viewing_time"":7018},{""page_index"":2,""viewing_time"":569},{""page_index"":3,""viewing_time"":506.09999999403954},{""page_index"":4,""viewing_time"":518},{""page_index"":5,""viewing_time"":571.8000000119209},{""page_index"":6,""viewing_time"":535.1999999880791},{""page_index"":7,""viewing_time"":1023.9000000059605},{""page_index"":8,""viewing_time"":321},{""page_index"":9,""viewing_time"":799.0999999940395},{""page_index"":10,""viewing_time"":333},{""page_index"":11,""viewing_time"":534.1000000089407},{""page_index"":12,""viewing_time"":333},{""page_index"":13,""viewing_time"":604}]","","",""
"","","","","","html-keyboard-response","4","295009","0.0-2.0-0.0-0.0-0.0","14","1","2022-04-01 08:04:32","c79472ad15d8b617a4d57d5bf56a810f","116.7.221.23","Mozilla/5.0 (Windows NT 10.0; Win64; x64) AppleWebKit/537.36 (KHTML, like Gecko) Chrome/100.0.4896.60 Safari/537.36","WebKit","Chrome","100.0.4896.60","Windows","10.0","null","null","","","<p style=""font-size:64px;"">+</p>","O_6_1_O",""
"","","","","","html-keyboard-response","5","296261","0.0-2.0-0.0-0.0-1.0","14","1","2022-04-01 08:04:32","c79472ad15d8b617a4d57d5bf56a810f","116.7.221.23","Mozilla/5.0 (Windows NT 10.0; Win64; x64) AppleWebKit/537.36 (KHTML, like Gecko) Chrome/100.0.4896.60 Safari/537.36","WebKit","Chrome","100.0.4896.60","Windows","10.0","null","null","","","
                        <div class=orange>
                        <div class=""centered"">
                            <p style=""font-size: 24px""><b>53%</b></p>
                        </div>","O_6_1_O",""
"","","","","","html-keyboard-response","6","296662","0.0-2.0-0.0-0.0-0.1","14","1","2022-04-01 08:04:32","c79472ad15d8b617a4d57d5bf56a810f","116.7.221.23","Mozilla/5.0 (Windows NT 10.0; Win64; x64) AppleWebKit/537.36 (KHTML, like Gecko) Chrome/100.0.4896.60 Safari/537.36","WebKit","Chrome","100.0.4896.60","Windows","10.0","null","null","","","<p style=""font-size:64px;"">+</p>","O_6_1_O",""
"","","","","","html-keyboard-response","7","297914","0.0-2.0-0.0-0.0-1.1","14","1","2022-04-01 08:04:32","c79472ad15d8b617a4d57d5bf56a810f","116.7.221.23","Mozilla/5.0 (Windows NT 10.0; Win64; x64) AppleWebKit/537.36 (KHTML, like Gecko) Chrome/100.0.4896.60 Safari/537.36","WebKit","Chrome","100.0.4896.60","Windows","10.0","null","null","","","
                        <div class=orange>
                        <div class=""centered"">
                            <p style=""font-size: 24px""><b>53%</b></p>
                        </div>","O_6_1_O",""
"","","","","","html-keyboard-response","8","298316","0.0-2.0-0.0-0.0-0.2","14","1","2022-04-01 08:04:32","c79472ad15d8b617a4d57d5bf56a810f","116.7.221.23","Mozilla/5.0 (Windows NT 10.0; Win64; x64) AppleWebKit/537.36 (KHTML, like Gecko) Chrome/100.0.4896.60 Safari/537.36","WebKit","Chrome","100.0.4896.60","Windows","10.0","null","null","","","<p style=""font-size:64px;"">+</p>","O_6_1_O",""
"","","","","","html-keyboard-response","9","299566","0.0-2.0-0.0-0.0-1.2","14","1","2022-04-01 08:04:32","c79472ad15d8b617a4d57d5bf56a810f","116.7.221.23","Mozilla/5.0 (Windows NT 10.0; Win64; x64) AppleWebKit/537.36 (KHTML, like Gecko) Chrome/100.0.4896.60 Safari/537.36","WebKit","Chrome","100.0.4896.60","Windows","10.0","null","null","","","
                        <div class=orange>
                        <div class=""centered"">
                            <p style=""font-size: 24px""><b>54%</b></p>
                        </div>","O_6_1_O",""
"","","","","","html-keyboard-response","10","299967","0.0-2.0-0.0-0.0-0.3","14","1","2022-04-01 08:04:32","c79472ad15d8b617a4d57d5bf56a810f","116.7.221.23","Mozilla/5.0 (Windows NT 10.0; Win64; x64) AppleWebKit/537.36 (KHTML, like Gecko) Chrome/100.0.4896.60 Safari/537.36","WebKit","Chrome","100.0.4896.60","Windows","10.0","null","null","","","<p style=""font-size:64px;"">+</p>","O_6_1_O",""
"","","","","","html-keyboard-response","11","301219","0.0-2.0-0.0-0.0-1.3","14","1","2022-04-01 08:04:32","c79472ad15d8b617a4d57d5bf56a810f","116.7.221.23","Mozilla/5.0 (Windows NT 10.0; Win64; x64) AppleWebKit/537.36 (KHTML, like Gecko) Chrome/100.0.4896.60 Safari/537.36","WebKit","Chrome","100.0.4896.60","Windows","10.0","null","null","","","
                        <div class=pink>
                        <div class=""centered"">
                            <p style=""font-size: 24px""><b>51%</b></p>
                        </div>","O_6_1_O",""
"","","","","","html-keyboard-response","12","301621","0.0-2.0-0.0-0.0-0.4","14","1","2022-04-01 08:04:32","c79472ad15d8b617a4d57d5bf56a810f","116.7.221.23","Mozilla/5.0 (Windows NT 10.0; Win64; x64) AppleWebKit/537.36 (KHTML, like Gecko) Chrome/100.0.4896.60 Safari/537.36","WebKit","Chrome","100.0.4896.60","Windows","10.0","null","null","","","<p style=""font-size:64px;"">+</p>","O_6_1_O",""
"","","","","","html-keyboard-response","13","302872","0.0-2.0-0.0-0.0-1.4","14","1","2022-04-01 08:04:32","c79472ad15d8b617a4d57d5bf56a810f","116.7.221.23","Mozilla/5.0 (Windows NT 10.0; Win64; x64) AppleWebKit/537.36 (KHTML, like Gecko) Chrome/100.0.4896.60 Safari/537.36","WebKit","Chrome","100.0.4896.60","Windows","10.0","null","null","","","
                        <div class=pink>
                        <div class=""centered"">
                            <p style=""font-size: 24px""><b>51%</b></p>
                        </div>","O_6_1_O",""
"","","","","","html-keyboard-response","14","303273","0.0-2.0-0.0-0.0-0.5","14","1","2022-04-01 08:04:32","c79472ad15d8b617a4d57d5bf56a810f","116.7.221.23","Mozilla/5.0 (Windows NT 10.0; Win64; x64) AppleWebKit/537.36 (KHTML, like Gecko) Chrome/100.0.4896.60 Safari/537.36","WebKit","Chrome","100.0.4896.60","Windows","10.0","null","null","","","<p style=""font-size:64px;"">+</p>","O_6_1_O",""
"","","","","","html-keyboard-response","15","304524","0.0-2.0-0.0-0.0-1.5","14","1","2022-04-01 08:04:32","c79472ad15d8b617a4d57d5bf56a810f","116.7.221.23","Mozilla/5.0 (Windows NT 10.0; Win64; x64) AppleWebKit/537.36 (KHTML, like Gecko) Chrome/100.0.4896.60 Safari/537.36","WebKit","Chrome","100.0.4896.60","Windows","10.0","null","null","","","
                        <div class=pink>
                        <div class=""centered"">
                            <p style=""font-size: 24px""><b>52%</b></p>
                        </div>","O_6_1_O",""
"","","","","","html-keyboard-response","16","304925","0.0-2.0-0.0-1.0-0.0","14","1","2022-04-01 08:04:32","c79472ad15d8b617a4d57d5bf56a810f","116.7.221.23","Mozilla/5.0 (Windows NT 10.0; Win64; x64) AppleWebKit/537.36 (KHTML, like Gecko) Chrome/100.0.4896.60 Safari/537.36","WebKit","Chrome","100.0.4896.60","Windows","10.0","null","null","","","<p style=""font-size:64px;"">+</p>","O_6_1_O",""
"","","","","","html-keyboard-response","17","306178","0.0-2.0-0.0-1.0-1.0","14","1","2022-04-01 08:04:32","c79472ad15d8b617a4d57d5bf56a810f","116.7.221.23","Mozilla/5.0 (Windows NT 10.0; Win64; x64) AppleWebKit/537.36 (KHTML, like Gecko) Chrome/100.0.4896.60 Safari/537.36","WebKit","Chrome","100.0.4896.60","Windows","10.0","null","null","","","
                        <div class=""orange"">
                        <div class=""centered"">
                            <p style=""font-size: 24px""><b>50%</b></p>
                        </div>","O_6_1_O",""
"","","","","","html-slider-response","18","311178","0.0-2.0-0.0-2.0","14","1","2022-04-01 08:04:32","c79472ad15d8b617a4d57d5bf56a810f","116.7.221.23","Mozilla/5.0 (Windows NT 10.0; Win64; x64) AppleWebKit/537.36 (KHTML, like Gecko) Chrome/100.0.4896.60 Safari/537.36","WebKit","Chrome","100.0.4896.60","Windows","10.0","4998.70000000298","20","","","<div style=""width: 500px; height: 100px;""><p>Place your bid for more information.</p></div>","infoBid","1"
"","","","","","html-keyboard-response","19","311580","0.0-2.0-0.0-3.0-0.0","14","1","2022-04-01 08:04:32","c79472ad15d8b617a4d57d5bf56a810f","116.7.221.23","Mozilla/5.0 (Windows NT 10.0; Win64; x64) AppleWebKit/537.36 (KHTML, like Gecko) Chrome/100.0.4896.60 Safari/537.36","WebKit","Chrome","100.0.4896.60","Windows","10.0","null","null","","","<p style=""font-size:64px;"">+</p>","O_6_1_O",""
"","","","","","html-keyboard-response","20","312832","0.0-2.0-0.0-3.0-1.0","14","1","2022-04-01 08:04:32","c79472ad15d8b617a4d57d5bf56a810f","116.7.221.23","Mozilla/5.0 (Windows NT 10.0; Win64; x64) AppleWebKit/537.36 (KHTML, like Gecko) Chrome/100.0.4896.60 Safari/537.36","WebKit","Chrome","100.0.4896.60","Windows","10.0","null","null","","","<div class=""grey"">
                <div class=""centered"">
                    <p style=""font-size: 24px""><b>???</b></p>
                </div>","O_6_1_O",""
"","","","","","html-keyboard-response","21","319130","0.0-2.0-0.0-4.0-0.0","14","1","2022-04-01 08:04:32","c79472ad15d8b617a4d57d5bf56a810f","116.7.221.23","Mozilla/5.0 (Windows NT 10.0; Win64; x64) AppleWebKit/537.36 (KHTML, like Gecko) Chrome/100.0.4896.60 Safari/537.36","WebKit","Chrome","100.0.4896.60","Windows","10.0","6296.399999991059","f","","","
                      <div class=""row"">

                          <div class=""column"">
                              <div class=""orange""></div>
                              <div class=""leftChoiceText"">
                                  <p style=""font-size: 32px""><b>F</b></p>
                              </div>
                          </div>

                          <div class=""column"">
                              <div class=""pink""></div>
                              <div class=""rightChoiceText"">
                                  <p style=""font-size: 32px""><b>J</b></p>
                              </div>
                          </div>

                      </div>

                      <div class=""centeredTop"">
                          Which colour do you<br>
                          predict will win?
                      </div>","O_6_1_O",""
"","","","","","html-keyboard-response","22","320632","0.0-2.0-0.0-4.0-1.0","14","1","2022-04-01 08:04:32","c79472ad15d8b617a4d57d5bf56a810f","116.7.221.23","Mozilla/5.0 (Windows NT 10.0; Win64; x64) AppleWebKit/537.36 (KHTML, like Gecko) Chrome/100.0.4896.60 Safari/537.36","WebKit","Chrome","100.0.4896.60","Windows","10.0","null","null","","","<p style=""font-size:64px;"">+</p>","O_6_1_O",""
"","","","","","html-keyboard-response","23","321033","0.0-2.0-1.0-0.0-0.0","14","1","2022-04-01 08:04:32","c79472ad15d8b617a4d57d5bf56a810f","116.7.221.23","Mozilla/5.0 (Windows NT 10.0; Win64; x64) AppleWebKit/537.36 (KHTML, like Gecko) Chrome/100.0.4896.60 Safari/537.36","WebKit","Chrome","100.0.4896.60","Windows","10.0","null","null","","","<p style=""font-size:64px;"">+</p>","P_2_5_O",""
"","","","","","html-keyboard-response","24","322285","0.0-2.0-1.0-0.0-1.0","14","1","2022-04-01 08:04:32","c79472ad15d8b617a4d57d5bf56a810f","116.7.221.23","Mozilla/5.0 (Windows NT 10.0; Win64; x64) AppleWebKit/537.36 (KHTML, like Gecko) Chrome/100.0.4896.60 Safari/537.36","WebKit","Chrome","100.0.4896.60","Windows","10.0","null","null","","","
                        <div class=orange>
                        <div class=""centered"">
                            <p style=""font-size: 24px""><b>52%</b></p>
                        </div>","P_2_5_O",""
"","","","","","html-keyboard-response","25","322687","0.0-2.0-1.0-0.0-0.1","14","1","2022-04-01 08:04:32","c79472ad15d8b617a4d57d5bf56a810f","116.7.221.23","Mozilla/5.0 (Windows NT 10.0; Win64; x64) AppleWebKit/537.36 (KHTML, like Gecko) Chrome/100.0.4896.60 Safari/537.36","WebKit","Chrome","100.0.4896.60","Windows","10.0","null","null","","","<p style=""font-size:64px;"">+</p>","P_2_5_O",""
"","","","","","html-keyboard-response","26","323939","0.0-2.0-1.0-0.0-1.1","14","1","2022-04-01 08:04:32","c79472ad15d8b617a4d57d5bf56a810f","116.7.221.23","Mozilla/5.0 (Windows NT 10.0; Win64; x64) AppleWebKit/537.36 (KHTML, like Gecko) Chrome/100.0.4896.60 Safari/537.36","WebKit","Chrome","100.0.4896.60","Windows","10.0","null","null","","","
                        <div class=orange>
                        <div class=""centered"">
                            <p style=""font-size: 24px""><b>55%</b></p>
                        </div>","P_2_5_O",""
"","","","","","html-keyboard-response","27","324339","0.0-2.0-1.0-0.0-0.2","14","1","2022-04-01 08:04:32","c79472ad15d8b617a4d57d5bf56a810f","116.7.221.23","Mozilla/5.0 (Windows NT 10.0; Win64; x64) AppleWebKit/537.36 (KHTML, like Gecko) Chrome/100.0.4896.60 Safari/537.36","WebKit","Chrome","100.0.4896.60","Windows","10.0","null","null","","","<p style=""font-size:64px;"">+</p>","P_2_5_O",""
"","","","","","html-keyboard-response","28","325603","0.0-2.0-1.0-0.0-1.2","14","1","2022-04-01 08:04:32","c79472ad15d8b617a4d57d5bf56a810f","116.7.221.23","Mozilla/5.0 (Windows NT 10.0; Win64; x64) AppleWebKit/537.36 (KHTML, like Gecko) Chrome/100.0.4896.60 Safari/537.36","WebKit","Chrome","100.0.4896.60","Windows","10.0","null","null","","","
                        <div class=pink>
                        <div class=""centered"">
                            <p style=""font-size: 24px""><b>53%</b></p>
                        </div>","P_2_5_O",""
"","","","","","html-keyboard-response","29","326005","0.0-2.0-1.0-0.0-0.3","14","1","2022-04-01 08:04:32","c79472ad15d8b617a4d57d5bf56a810f","116.7.221.23","Mozilla/5.0 (Windows NT 10.0; Win64; x64) AppleWebKit/537.36 (KHTML, like Gecko) Chrome/100.0.4896.60 Safari/537.36","WebKit","Chrome","100.0.4896.60","Windows","10.0","null","null","","","<p style=""font-size:64px;"">+</p>","P_2_5_O",""
"","","","","","html-keyboard-response","30","327257","0.0-2.0-1.0-0.0-1.3","14","1","2022-04-01 08:04:32","c79472ad15d8b617a4d57d5bf56a810f","116.7.221.23","Mozilla/5.0 (Windows NT 10.0; Win64; x64) AppleWebKit/537.36 (KHTML, like Gecko) Chrome/100.0.4896.60 Safari/537.36","WebKit","Chrome","100.0.4896.60","Windows","10.0","null","null","","","
                        <div class=pink>
                        <div class=""centered"">
                            <p style=""font-size: 24px""><b>55%</b></p>
                        </div>","P_2_5_O",""
"","","","","","html-keyboard-response","31","327659","0.0-2.0-1.0-0.0-0.4","14","1","2022-04-01 08:04:32","c79472ad15d8b617a4d57d5bf56a810f","116.7.221.23","Mozilla/5.0 (Windows NT 10.0; Win64; x64) AppleWebKit/537.36 (KHTML, like Gecko) Chrome/100.0.4896.60 Safari/537.36","WebKit","Chrome","100.0.4896.60","Windows","10.0","null","null","","","<p style=""font-size:64px;"">+</p>","P_2_5_O",""
"","","","","","html-keyboard-response","32","328910","0.0-2.0-1.0-0.0-1.4","14","1","2022-04-01 08:04:32","c79472ad15d8b617a4d57d5bf56a810f","116.7.221.23","Mozilla/5.0 (Windows NT 10.0; Win64; x64) AppleWebKit/537.36 (KHTML, like Gecko) Chrome/100.0.4896.60 Safari/537.36","WebKit","Chrome","100.0.4896.60","Windows","10.0","null","null","","","
                        <div class=pink>
                        <div class=""centered"">
                            <p style=""font-size: 24px""><b>53%</b></p>
                        </div>","P_2_5_O",""
"","","","","","html-keyboard-response","33","329313","0.0-2.0-1.0-0.0-0.5","14","1","2022-04-01 08:04:32","c79472ad15d8b617a4d57d5bf56a810f","116.7.221.23","Mozilla/5.0 (Windows NT 10.0; Win64; x64) AppleWebKit/537.36 (KHTML, like Gecko) Chrome/100.0.4896.60 Safari/537.36","WebKit","Chrome","100.0.4896.60","Windows","10.0","null","null","","","<p style=""font-size:64px;"">+</p>","P_2_5_O",""
"","","","","","html-keyboard-response","34","330565","0.0-2.0-1.0-0.0-1.5","14","1","2022-04-01 08:04:32","c79472ad15d8b617a4d57d5bf56a810f","116.7.221.23","Mozilla/5.0 (Windows NT 10.0; Win64; x64) AppleWebKit/537.36 (KHTML, like Gecko) Chrome/100.0.4896.60 Safari/537.36","WebKit","Chrome","100.0.4896.60","Windows","10.0","null","null","","","
                        <div class=orange>
                        <div class=""centered"">
                            <p style=""font-size: 24px""><b>52%</b></p>
                        </div>","P_2_5_O",""
"","","","","","html-keyboard-response","35","330966","0.0-2.0-1.0-1.0-0.0","14","1","2022-04-01 08:04:32","c79472ad15d8b617a4d57d5bf56a810f","116.7.221.23","Mozilla/5.0 (Windows NT 10.0; Win64; x64) AppleWebKit/537.36 (KHTML, like Gecko) Chrome/100.0.4896.60 Safari/537.36","WebKit","Chrome","100.0.4896.60","Windows","10.0","null","null","","","<p style=""font-size:64px;"">+</p>","P_2_5_O",""
"","","","","","html-keyboard-response","36","332218","0.0-2.0-1.0-1.0-1.0","14","1","2022-04-01 08:04:32","c79472ad15d8b617a4d57d5bf56a810f","116.7.221.23","Mozilla/5.0 (Windows NT 10.0; Win64; x64) AppleWebKit/537.36 (KHTML, like Gecko) Chrome/100.0.4896.60 Safari/537.36","WebKit","Chrome","100.0.4896.60","Windows","10.0","null","null","","","
                        <div class=""orange"">
                        <div class=""centered"">
                            <p style=""font-size: 24px""><b>50%</b></p>
                        </div>","P_2_5_O",""
"","","","","","html-slider-response","37","336436","0.0-2.0-1.0-2.0","14","1","2022-04-01 08:04:32","c79472ad15d8b617a4d57d5bf56a810f","116.7.221.23","Mozilla/5.0 (Windows NT 10.0; Win64; x64) AppleWebKit/537.36 (KHTML, like Gecko) Chrome/100.0.4896.60 Safari/537.36","WebKit","Chrome","100.0.4896.60","Windows","10.0","4217.5","28","","","<div style=""width: 500px; height: 100px;""><p>Place your bid for more information.</p></div>","infoBid","0"
"","","","","","html-keyboard-response","38","336838","0.0-2.0-1.0-3.0-0.0","14","1","2022-04-01 08:04:32","c79472ad15d8b617a4d57d5bf56a810f","116.7.221.23","Mozilla/5.0 (Windows NT 10.0; Win64; x64) AppleWebKit/537.36 (KHTML, like Gecko) Chrome/100.0.4896.60 Safari/537.36","WebKit","Chrome","100.0.4896.60","Windows","10.0","null","null","","","<p style=""font-size:64px;"">+</p>","P_2_5_O",""
"","","","","","html-keyboard-response","39","338090","0.0-2.0-1.0-3.0-1.0","14","1","2022-04-01 08:04:32","c79472ad15d8b617a4d57d5bf56a810f","116.7.221.23","Mozilla/5.0 (Windows NT 10.0; Win64; x64) AppleWebKit/537.36 (KHTML, like Gecko) Chrome/100.0.4896.60 Safari/537.36","WebKit","Chrome","100.0.4896.60","Windows","10.0","null","null","","","<div class=""grey"">
                <div class=""centered"">
                    <p style=""font-size: 24px""><b>???</b></p>
                </div>","P_2_5_O",""
"","","","","","html-keyboard-response","40","339924","0.0-2.0-1.0-4.0-0.0","14","1","2022-04-01 08:04:32","c79472ad15d8b617a4d57d5bf56a810f","116.7.221.23","Mozilla/5.0 (Windows NT 10.0; Win64; x64) AppleWebKit/537.36 (KHTML, like Gecko) Chrome/100.0.4896.60 Safari/537.36","WebKit","Chrome","100.0.4896.60","Windows","10.0","1832.0999999940395","j","","","
                      <div class=""row"">

                          <div class=""column"">
                              <div class=""orange""></div>
                              <div class=""leftChoiceText"">
                                  <p style=""font-size: 32px""><b>F</b></p>
                              </div>
                          </div>

                          <div class=""column"">
                              <div class=""pink""></div>
                              <div class=""rightChoiceText"">
                                  <p style=""font-size: 32px""><b>J</b></p>
                              </div>
                          </div>

                      </div>

                      <div class=""centeredTop"">
                          Which colour do you<br>
                          predict will win?
                      </div>","P_2_5_O",""
"","","","","","html-keyboard-response","41","341426","0.0-2.0-1.0-4.0-1.0","14","1","2022-04-01 08:04:32","c79472ad15d8b617a4d57d5bf56a810f","116.7.221.23","Mozilla/5.0 (Windows NT 10.0; Win64; x64) AppleWebKit/537.36 (KHTML, like Gecko) Chrome/100.0.4896.60 Safari/537.36","WebKit","Chrome","100.0.4896.60","Windows","10.0","null","null","","","<p style=""font-size:64px;"">+</p>","P_2_5_O",""
"","","","","","html-keyboard-response","42","341826","0.0-2.0-2.0-0.0-0.0","14","1","2022-04-01 08:04:32","c79472ad15d8b617a4d57d5bf56a810f","116.7.221.23","Mozilla/5.0 (Windows NT 10.0; Win64; x64) AppleWebKit/537.36 (KHTML, like Gecko) Chrome/100.0.4896.60 Safari/537.36","WebKit","Chrome","100.0.4896.60","Windows","10.0","null","null","","","<p style=""font-size:64px;"">+</p>","P_4_6_O",""
"","","","","","html-keyboard-response","43","343078","0.0-2.0-2.0-0.0-1.0","14","1","2022-04-01 08:04:32","c79472ad15d8b617a4d57d5bf56a810f","116.7.221.23","Mozilla/5.0 (Windows NT 10.0; Win64; x64) AppleWebKit/537.36 (KHTML, like Gecko) Chrome/100.0.4896.60 Safari/537.36","WebKit","Chrome","100.0.4896.60","Windows","10.0","null","null","","","
                        <div class=pink>
                        <div class=""centered"">
                            <p style=""font-size: 24px""><b>54%</b></p>
                        </div>","P_4_6_O",""
"","","","","","html-keyboard-response","44","343479","0.0-2.0-2.0-0.0-0.1","14","1","2022-04-01 08:04:32","c79472ad15d8b617a4d57d5bf56a810f","116.7.221.23","Mozilla/5.0 (Windows NT 10.0; Win64; x64) AppleWebKit/537.36 (KHTML, like Gecko) Chrome/100.0.4896.60 Safari/537.36","WebKit","Chrome","100.0.4896.60","Windows","10.0","null","null","","","<p style=""font-size:64px;"">+</p>","P_4_6_O",""
"","","","","","html-keyboard-response","45","344730","0.0-2.0-2.0-0.0-1.1","14","1","2022-04-01 08:04:32","c79472ad15d8b617a4d57d5bf56a810f","116.7.221.23","Mozilla/5.0 (Windows NT 10.0; Win64; x64) AppleWebKit/537.36 (KHTML, like Gecko) Chrome/100.0.4896.60 Safari/537.36","WebKit","Chrome","100.0.4896.60","Windows","10.0","null","null","","","
                        <div class=orange>
                        <div class=""centered"">
                            <p style=""font-size: 24px""><b>53%</b></p>
                        </div>","P_4_6_O",""
"","","","","","html-keyboard-response","46","345132","0.0-2.0-2.0-0.0-0.2","14","1","2022-04-01 08:04:32","c79472ad15d8b617a4d57d5bf56a810f","116.7.221.23","Mozilla/5.0 (Windows NT 10.0; Win64; x64) AppleWebKit/537.36 (KHTML, like Gecko) Chrome/100.0.4896.60 Safari/537.36","WebKit","Chrome","100.0.4896.60","Windows","10.0","null","null","","","<p style=""font-size:64px;"">+</p>","P_4_6_O",""
"","","","","","html-keyboard-response","47","346383","0.0-2.0-2.0-0.0-1.2","14","1","2022-04-01 08:04:32","c79472ad15d8b617a4d57d5bf56a810f","116.7.221.23","Mozilla/5.0 (Windows NT 10.0; Win64; x64) AppleWebKit/537.36 (KHTML, like Gecko) Chrome/100.0.4896.60 Safari/537.36","WebKit","Chrome","100.0.4896.60","Windows","10.0","null","null","","","
                        <div class=orange>
                        <div class=""centered"">
                            <p style=""font-size: 24px""><b>54%</b></p>
                        </div>","P_4_6_O",""
"","","","","","html-keyboard-response","48","346785","0.0-2.0-2.0-0.0-0.3","14","1","2022-04-01 08:04:32","c79472ad15d8b617a4d57d5bf56a810f","116.7.221.23","Mozilla/5.0 (Windows NT 10.0; Win64; x64) AppleWebKit/537.36 (KHTML, like Gecko) Chrome/100.0.4896.60 Safari/537.36","WebKit","Chrome","100.0.4896.60","Windows","10.0","null","null","","","<p style=""font-size:64px;"">+</p>","P_4_6_O",""
"","","","","","html-keyboard-response","49","348035","0.0-2.0-2.0-0.0-1.3","14","1","2022-04-01 08:04:32","c79472ad15d8b617a4d57d5bf56a810f","116.7.221.23","Mozilla/5.0 (Windows NT 10.0; Win64; x64) AppleWebKit/537.36 (KHTML, like Gecko) Chrome/100.0.4896.60 Safari/537.36","WebKit","Chrome","100.0.4896.60","Windows","10.0","null","null","","","
                        <div class=orange>
                        <div class=""centered"">
                            <p style=""font-size: 24px""><b>52%</b></p>
                        </div>","P_4_6_O",""
"","","","","","html-keyboard-response","50","348438","0.0-2.0-2.0-0.0-0.4","14","1","2022-04-01 08:04:32","c79472ad15d8b617a4d57d5bf56a810f","116.7.221.23","Mozilla/5.0 (Windows NT 10.0; Win64; x64) AppleWebKit/537.36 (KHTML, like Gecko) Chrome/100.0.4896.60 Safari/537.36","WebKit","Chrome","100.0.4896.60","Windows","10.0","null","null","","","<p style=""font-size:64px;"">+</p>","P_4_6_O",""
"","","","","","html-keyboard-response","51","349689","0.0-2.0-2.0-0.0-1.4","14","1","2022-04-01 08:04:32","c79472ad15d8b617a4d57d5bf56a810f","116.7.221.23","Mozilla/5.0 (Windows NT 10.0; Win64; x64) AppleWebKit/537.36 (KHTML, like Gecko) Chrome/100.0.4896.60 Safari/537.36","WebKit","Chrome","100.0.4896.60","Windows","10.0","null","null","","","
                        <div class=pink>
                        <div class=""centered"">
                            <p style=""font-size: 24px""><b>55%</b></p>
                        </div>","P_4_6_O",""
"","","","","","html-keyboard-response","52","350091","0.0-2.0-2.0-0.0-0.5","14","1","2022-04-01 08:04:32","c79472ad15d8b617a4d57d5bf56a810f","116.7.221.23","Mozilla/5.0 (Windows NT 10.0; Win64; x64) AppleWebKit/537.36 (KHTML, like Gecko) Chrome/100.0.4896.60 Safari/537.36","WebKit","Chrome","100.0.4896.60","Windows","10.0","null","null","","","<p style=""font-size:64px;"">+</p>","P_4_6_O",""
"","","","","","html-keyboard-response","53","351343","0.0-2.0-2.0-0.0-1.5","14","1","2022-04-01 08:04:32","c79472ad15d8b617a4d57d5bf56a810f","116.7.221.23","Mozilla/5.0 (Windows NT 10.0; Win64; x64) AppleWebKit/537.36 (KHTML, like Gecko) Chrome/100.0.4896.60 Safari/537.36","WebKit","Chrome","100.0.4896.60","Windows","10.0","null","null","","","
                        <div class=pink>
                        <div class=""centered"">
                            <p style=""font-size: 24px""><b>54%</b></p>
                        </div>","P_4_6_O",""
"","","","","","html-keyboard-response","54","351745","0.0-2.0-2.0-1.0-0.0","14","1","2022-04-01 08:04:32","c79472ad15d8b617a4d57d5bf56a810f","116.7.221.23","Mozilla/5.0 (Windows NT 10.0; Win64; x64) AppleWebKit/537.36 (KHTML, like Gecko) Chrome/100.0.4896.60 Safari/537.36","WebKit","Chrome","100.0.4896.60","Windows","10.0","null","null","","","<p style=""font-size:64px;"">+</p>","P_4_6_O",""
"","","","","","html-keyboard-response","55","352997","0.0-2.0-2.0-1.0-1.0","14","1","2022-04-01 08:04:32","c79472ad15d8b617a4d57d5bf56a810f","116.7.221.23","Mozilla/5.0 (Windows NT 10.0; Win64; x64) AppleWebKit/537.36 (KHTML, like Gecko) Chrome/100.0.4896.60 Safari/537.36","WebKit","Chrome","100.0.4896.60","Windows","10.0","null","null","","","
                        <div class=""orange"">
                        <div class=""centered"">
                            <p style=""font-size: 24px""><b>50%</b></p>
                        </div>","P_4_6_O",""
"","","","","","html-slider-response","56","355830","0.0-2.0-2.0-2.0","14","1","2022-04-01 08:04:32","c79472ad15d8b617a4d57d5bf56a810f","116.7.221.23","Mozilla/5.0 (Windows NT 10.0; Win64; x64) AppleWebKit/537.36 (KHTML, like Gecko) Chrome/100.0.4896.60 Safari/537.36","WebKit","Chrome","100.0.4896.60","Windows","10.0","2833.1000000089407","40","","","<div style=""width: 500px; height: 100px;""><p>Place your bid for more information.</p></div>","infoBid","3"
"","","","","","html-keyboard-response","57","356233","0.0-2.0-2.0-3.0-0.0","14","1","2022-04-01 08:04:32","c79472ad15d8b617a4d57d5bf56a810f","116.7.221.23","Mozilla/5.0 (Windows NT 10.0; Win64; x64) AppleWebKit/537.36 (KHTML, like Gecko) Chrome/100.0.4896.60 Safari/537.36","WebKit","Chrome","100.0.4896.60","Windows","10.0","null","null","","","<p style=""font-size:64px;"">+</p>","P_4_6_O",""
"","","","","","html-keyboard-response","58","357484","0.0-2.0-2.0-3.0-1.0","14","1","2022-04-01 08:04:32","c79472ad15d8b617a4d57d5bf56a810f","116.7.221.23","Mozilla/5.0 (Windows NT 10.0; Win64; x64) AppleWebKit/537.36 (KHTML, like Gecko) Chrome/100.0.4896.60 Safari/537.36","WebKit","Chrome","100.0.4896.60","Windows","10.0","null","null","","","<div class=pink>
                <div class=""centered"">
                    <p style=""font-size: 24px""><b>51%</b></p>
                </div>","P_4_6_O",""
"","","","","","html-keyboard-response","59","363972","0.0-2.0-2.0-4.0-0.0","14","1","2022-04-01 08:04:32","c79472ad15d8b617a4d57d5bf56a810f","116.7.221.23","Mozilla/5.0 (Windows NT 10.0; Win64; x64) AppleWebKit/537.36 (KHTML, like Gecko) Chrome/100.0.4896.60 Safari/537.36","WebKit","Chrome","100.0.4896.60","Windows","10.0","6486.9000000059605","j","","","
                      <div class=""row"">

                          <div class=""column"">
                              <div class=""orange""></div>
                              <div class=""leftChoiceText"">
                                  <p style=""font-size: 32px""><b>F</b></p>
                              </div>
                          </div>

                          <div class=""column"">
                              <div class=""pink""></div>
                              <div class=""rightChoiceText"">
                                  <p style=""font-size: 32px""><b>J</b></p>
                              </div>
                          </div>

                      </div>

                      <div class=""centeredTop"">
                          Which colour do you<br>
                          predict will win?
                      </div>","P_4_6_O",""
"","","","","","html-keyboard-response","60","365473","0.0-2.0-2.0-4.0-1.0","14","1","2022-04-01 08:04:32","c79472ad15d8b617a4d57d5bf56a810f","116.7.221.23","Mozilla/5.0 (Windows NT 10.0; Win64; x64) AppleWebKit/537.36 (KHTML, like Gecko) Chrome/100.0.4896.60 Safari/537.36","WebKit","Chrome","100.0.4896.60","Windows","10.0","null","null","","","<p style=""font-size:64px;"">+</p>","P_4_6_O",""
"","","","","","html-keyboard-response","61","365874","0.0-2.0-3.0-0.0-0.0","14","1","2022-04-01 08:04:32","c79472ad15d8b617a4d57d5bf56a810f","116.7.221.23","Mozilla/5.0 (Windows NT 10.0; Win64; x64) AppleWebKit/537.36 (KHTML, like Gecko) Chrome/100.0.4896.60 Safari/537.36","WebKit","Chrome","100.0.4896.60","Windows","10.0","null","null","","","<p style=""font-size:64px;"">+</p>","O_4_3_O",""
"","","","","","html-keyboard-response","62","367126","0.0-2.0-3.0-0.0-1.0","14","1","2022-04-01 08:04:32","c79472ad15d8b617a4d57d5bf56a810f","116.7.221.23","Mozilla/5.0 (Windows NT 10.0; Win64; x64) AppleWebKit/537.36 (KHTML, like Gecko) Chrome/100.0.4896.60 Safari/537.36","WebKit","Chrome","100.0.4896.60","Windows","10.0","null","null","","","
                        <div class=pink>
                        <div class=""centered"">
                            <p style=""font-size: 24px""><b>52%</b></p>
                        </div>","O_4_3_O",""
"","","","","","html-keyboard-response","63","367528","0.0-2.0-3.0-0.0-0.1","14","1","2022-04-01 08:04:32","c79472ad15d8b617a4d57d5bf56a810f","116.7.221.23","Mozilla/5.0 (Windows NT 10.0; Win64; x64) AppleWebKit/537.36 (KHTML, like Gecko) Chrome/100.0.4896.60 Safari/537.36","WebKit","Chrome","100.0.4896.60","Windows","10.0","null","null","","","<p style=""font-size:64px;"">+</p>","O_4_3_O",""
"","","","","","html-keyboard-response","64","368779","0.0-2.0-3.0-0.0-1.1","14","1","2022-04-01 08:04:32","c79472ad15d8b617a4d57d5bf56a810f","116.7.221.23","Mozilla/5.0 (Windows NT 10.0; Win64; x64) AppleWebKit/537.36 (KHTML, like Gecko) Chrome/100.0.4896.60 Safari/537.36","WebKit","Chrome","100.0.4896.60","Windows","10.0","null","null","","","
                        <div class=pink>
                        <div class=""centered"">
                            <p style=""font-size: 24px""><b>53%</b></p>
                        </div>","O_4_3_O",""
"","","","","","html-keyboard-response","65","369180","0.0-2.0-3.0-0.0-0.2","14","1","2022-04-01 08:04:32","c79472ad15d8b617a4d57d5bf56a810f","116.7.221.23","Mozilla/5.0 (Windows NT 10.0; Win64; x64) AppleWebKit/537.36 (KHTML, like Gecko) Chrome/100.0.4896.60 Safari/537.36","WebKit","Chrome","100.0.4896.60","Windows","10.0","null","null","","","<p style=""font-size:64px;"">+</p>","O_4_3_O",""
"","","","","","html-keyboard-response","66","370431","0.0-2.0-3.0-0.0-1.2","14","1","2022-04-01 08:04:32","c79472ad15d8b617a4d57d5bf56a810f","116.7.221.23","Mozilla/5.0 (Windows NT 10.0; Win64; x64) AppleWebKit/537.36 (KHTML, like Gecko) Chrome/100.0.4896.60 Safari/537.36","WebKit","Chrome","100.0.4896.60","Windows","10.0","null","null","","","
                        <div class=orange>
                        <div class=""centered"">
                            <p style=""font-size: 24px""><b>53%</b></p>
                        </div>","O_4_3_O",""
"","","","","","html-keyboard-response","67","370833","0.0-2.0-3.0-0.0-0.3","14","1","2022-04-01 08:04:32","c79472ad15d8b617a4d57d5bf56a810f","116.7.221.23","Mozilla/5.0 (Windows NT 10.0; Win64; x64) AppleWebKit/537.36 (KHTML, like Gecko) Chrome/100.0.4896.60 Safari/537.36","WebKit","Chrome","100.0.4896.60","Windows","10.0","null","null","","","<p style=""font-size:64px;"">+</p>","O_4_3_O",""
"","","","","","html-keyboard-response","68","372084","0.0-2.0-3.0-0.0-1.3","14","1","2022-04-01 08:04:32","c79472ad15d8b617a4d57d5bf56a810f","116.7.221.23","Mozilla/5.0 (Windows NT 10.0; Win64; x64) AppleWebKit/537.36 (KHTML, like Gecko) Chrome/100.0.4896.60 Safari/537.36","WebKit","Chrome","100.0.4896.60","Windows","10.0","null","null","","","
                        <div class=orange>
                        <div class=""centered"">
                            <p style=""font-size: 24px""><b>55%</b></p>
                        </div>","O_4_3_O",""
"","","","","","html-keyboard-response","69","372486","0.0-2.0-3.0-0.0-0.4","14","1","2022-04-01 08:04:32","c79472ad15d8b617a4d57d5bf56a810f","116.7.221.23","Mozilla/5.0 (Windows NT 10.0; Win64; x64) AppleWebKit/537.36 (KHTML, like Gecko) Chrome/100.0.4896.60 Safari/537.36","WebKit","Chrome","100.0.4896.60","Windows","10.0","null","null","","","<p style=""font-size:64px;"">+</p>","O_4_3_O",""
"","","","","","html-keyboard-response","70","373737","0.0-2.0-3.0-0.0-1.4","14","1","2022-04-01 08:04:32","c79472ad15d8b617a4d57d5bf56a810f","116.7.221.23","Mozilla/5.0 (Windows NT 10.0; Win64; x64) AppleWebKit/537.36 (KHTML, like Gecko) Chrome/100.0.4896.60 Safari/537.36","WebKit","Chrome","100.0.4896.60","Windows","10.0","null","null","","","
                        <div class=pink>
                        <div class=""centered"">
                            <p style=""font-size: 24px""><b>52%</b></p>
                        </div>","O_4_3_O",""
"","","","","","html-keyboard-response","71","374138","0.0-2.0-3.0-0.0-0.5","14","1","2022-04-01 08:04:32","c79472ad15d8b617a4d57d5bf56a810f","116.7.221.23","Mozilla/5.0 (Windows NT 10.0; Win64; x64) AppleWebKit/537.36 (KHTML, like Gecko) Chrome/100.0.4896.60 Safari/537.36","WebKit","Chrome","100.0.4896.60","Windows","10.0","null","null","","","<p style=""font-size:64px;"">+</p>","O_4_3_O",""
"","","","","","html-keyboard-response","72","375389","0.0-2.0-3.0-0.0-1.5","14","1","2022-04-01 08:04:32","c79472ad15d8b617a4d57d5bf56a810f","116.7.221.23","Mozilla/5.0 (Windows NT 10.0; Win64; x64) AppleWebKit/537.36 (KHTML, like Gecko) Chrome/100.0.4896.60 Safari/537.36","WebKit","Chrome","100.0.4896.60","Windows","10.0","null","null","","","
                        <div class=orange>
                        <div class=""centered"">
                            <p style=""font-size: 24px""><b>53%</b></p>
                        </div>","O_4_3_O",""
"","","","","","html-keyboard-response","73","375791","0.0-2.0-3.0-1.0-0.0","14","1","2022-04-01 08:04:32","c79472ad15d8b617a4d57d5bf56a810f","116.7.221.23","Mozilla/5.0 (Windows NT 10.0; Win64; x64) AppleWebKit/537.36 (KHTML, like Gecko) Chrome/100.0.4896.60 Safari/537.36","WebKit","Chrome","100.0.4896.60","Windows","10.0","null","null","","","<p style=""font-size:64px;"">+</p>","O_4_3_O",""
"","","","","","html-keyboard-response","74","377042","0.0-2.0-3.0-1.0-1.0","14","1","2022-04-01 08:04:32","c79472ad15d8b617a4d57d5bf56a810f","116.7.221.23","Mozilla/5.0 (Windows NT 10.0; Win64; x64) AppleWebKit/537.36 (KHTML, like Gecko) Chrome/100.0.4896.60 Safari/537.36","WebKit","Chrome","100.0.4896.60","Windows","10.0","null","null","","","
                        <div class=""orange"">
                        <div class=""centered"">
                            <p style=""font-size: 24px""><b>50%</b></p>
                        </div>","O_4_3_O",""
"","","","","","html-slider-response","75","387644","0.0-2.0-3.0-2.0","14","1","2022-04-01 08:04:32","c79472ad15d8b617a4d57d5bf56a810f","116.7.221.23","Mozilla/5.0 (Windows NT 10.0; Win64; x64) AppleWebKit/537.36 (KHTML, like Gecko) Chrome/100.0.4896.60 Safari/537.36","WebKit","Chrome","100.0.4896.60","Windows","10.0","10602.09999999404","8","","","<div style=""width: 500px; height: 100px;""><p>Place your bid for more information.</p></div>","infoBid","6"
"","","","","","html-keyboard-response","76","388047","0.0-2.0-3.0-3.0-0.0","14","1","2022-04-01 08:04:32","c79472ad15d8b617a4d57d5bf56a810f","116.7.221.23","Mozilla/5.0 (Windows NT 10.0; Win64; x64) AppleWebKit/537.36 (KHTML, like Gecko) Chrome/100.0.4896.60 Safari/537.36","WebKit","Chrome","100.0.4896.60","Windows","10.0","null","null","","","<p style=""font-size:64px;"">+</p>","O_4_3_O",""
"","","","","","html-keyboard-response","77","389298","0.0-2.0-3.0-3.0-1.0","14","1","2022-04-01 08:04:32","c79472ad15d8b617a4d57d5bf56a810f","116.7.221.23","Mozilla/5.0 (Windows NT 10.0; Win64; x64) AppleWebKit/537.36 (KHTML, like Gecko) Chrome/100.0.4896.60 Safari/537.36","WebKit","Chrome","100.0.4896.60","Windows","10.0","null","null","","","<div class=pink>
                <div class=""centered"">
                    <p style=""font-size: 24px""><b>51%</b></p>
                </div>","O_4_3_O",""
"","","","","","html-keyboard-response","78","393453","0.0-2.0-3.0-4.0-0.0","14","1","2022-04-01 08:04:32","c79472ad15d8b617a4d57d5bf56a810f","116.7.221.23","Mozilla/5.0 (Windows NT 10.0; Win64; x64) AppleWebKit/537.36 (KHTML, like Gecko) Chrome/100.0.4896.60 Safari/537.36","WebKit","Chrome","100.0.4896.60","Windows","10.0","4154.79999999702","j","","","
                      <div class=""row"">

                          <div class=""column"">
                              <div class=""orange""></div>
                              <div class=""leftChoiceText"">
                                  <p style=""font-size: 32px""><b>F</b></p>
                              </div>
                          </div>

                          <div class=""column"">
                              <div class=""pink""></div>
                              <div class=""rightChoiceText"">
                                  <p style=""font-size: 32px""><b>J</b></p>
                              </div>
                          </div>

                      </div>

                      <div class=""centeredTop"">
                          Which colour do you<br>
                          predict will win?
                      </div>","O_4_3_O",""
"","","","","","html-keyboard-response","79","394955","0.0-2.0-3.0-4.0-1.0","14","1","2022-04-01 08:04:32","c79472ad15d8b617a4d57d5bf56a810f","116.7.221.23","Mozilla/5.0 (Windows NT 10.0; Win64; x64) AppleWebKit/537.36 (KHTML, like Gecko) Chrome/100.0.4896.60 Safari/537.36","WebKit","Chrome","100.0.4896.60","Windows","10.0","null","null","","","<p style=""font-size:64px;"">+</p>","O_4_3_O",""
"","","","","","html-keyboard-response","80","395357","0.0-2.0-4.0-0.0-0.0","14","1","2022-04-01 08:04:32","c79472ad15d8b617a4d57d5bf56a810f","116.7.221.23","Mozilla/5.0 (Windows NT 10.0; Win64; x64) AppleWebKit/537.36 (KHTML, like Gecko) Chrome/100.0.4896.60 Safari/537.36","WebKit","Chrome","100.0.4896.60","Windows","10.0","null","null","","","<p style=""font-size:64px;"">+</p>","P_6_6_P",""
"","","","","","html-keyboard-response","81","396609","0.0-2.0-4.0-0.0-1.0","14","1","2022-04-01 08:04:32","c79472ad15d8b617a4d57d5bf56a810f","116.7.221.23","Mozilla/5.0 (Windows NT 10.0; Win64; x64) AppleWebKit/537.36 (KHTML, like Gecko) Chrome/100.0.4896.60 Safari/537.36","WebKit","Chrome","100.0.4896.60","Windows","10.0","null","null","","","
                        <div class=pink>
                        <div class=""centered"">
                            <p style=""font-size: 24px""><b>55%</b></p>
                        </div>","P_6_6_P",""
"","","","","","html-keyboard-response","82","397011","0.0-2.0-4.0-0.0-0.1","14","1","2022-04-01 08:04:32","c79472ad15d8b617a4d57d5bf56a810f","116.7.221.23","Mozilla/5.0 (Windows NT 10.0; Win64; x64) AppleWebKit/537.36 (KHTML, like Gecko) Chrome/100.0.4896.60 Safari/537.36","WebKit","Chrome","100.0.4896.60","Windows","10.0","null","null","","","<p style=""font-size:64px;"">+</p>","P_6_6_P",""
"","","","","","html-keyboard-response","83","398263","0.0-2.0-4.0-0.0-1.1","14","1","2022-04-01 08:04:32","c79472ad15d8b617a4d57d5bf56a810f","116.7.221.23","Mozilla/5.0 (Windows NT 10.0; Win64; x64) AppleWebKit/537.36 (KHTML, like Gecko) Chrome/100.0.4896.60 Safari/537.36","WebKit","Chrome","100.0.4896.60","Windows","10.0","null","null","","","
                        <div class=orange>
                        <div class=""centered"">
                            <p style=""font-size: 24px""><b>52%</b></p>
                        </div>","P_6_6_P",""
"","","","","","html-keyboard-response","84","398664","0.0-2.0-4.0-0.0-0.2","14","1","2022-04-01 08:04:32","c79472ad15d8b617a4d57d5bf56a810f","116.7.221.23","Mozilla/5.0 (Windows NT 10.0; Win64; x64) AppleWebKit/537.36 (KHTML, like Gecko) Chrome/100.0.4896.60 Safari/537.36","WebKit","Chrome","100.0.4896.60","Windows","10.0","null","null","","","<p style=""font-size:64px;"">+</p>","P_6_6_P",""
"","","","","","html-keyboard-response","85","399916","0.0-2.0-4.0-0.0-1.2","14","1","2022-04-01 08:04:32","c79472ad15d8b617a4d57d5bf56a810f","116.7.221.23","Mozilla/5.0 (Windows NT 10.0; Win64; x64) AppleWebKit/537.36 (KHTML, like Gecko) Chrome/100.0.4896.60 Safari/537.36","WebKit","Chrome","100.0.4896.60","Windows","10.0","null","null","","","
                        <div class=pink>
                        <div class=""centered"">
                            <p style=""font-size: 24px""><b>55%</b></p>
                        </div>","P_6_6_P",""
"","","","","","html-keyboard-response","86","400318","0.0-2.0-4.0-0.0-0.3","14","1","2022-04-01 08:04:32","c79472ad15d8b617a4d57d5bf56a810f","116.7.221.23","Mozilla/5.0 (Windows NT 10.0; Win64; x64) AppleWebKit/537.36 (KHTML, like Gecko) Chrome/100.0.4896.60 Safari/537.36","WebKit","Chrome","100.0.4896.60","Windows","10.0","null","null","","","<p style=""font-size:64px;"">+</p>","P_6_6_P",""
"","","","","","html-keyboard-response","87","401570","0.0-2.0-4.0-0.0-1.3","14","1","2022-04-01 08:04:32","c79472ad15d8b617a4d57d5bf56a810f","116.7.221.23","Mozilla/5.0 (Windows NT 10.0; Win64; x64) AppleWebKit/537.36 (KHTML, like Gecko) Chrome/100.0.4896.60 Safari/537.36","WebKit","Chrome","100.0.4896.60","Windows","10.0","null","null","","","
                        <div class=orange>
                        <div class=""centered"">
                            <p style=""font-size: 24px""><b>53%</b></p>
                        </div>","P_6_6_P",""
"","","","","","html-keyboard-response","88","401971","0.0-2.0-4.0-0.0-0.4","14","1","2022-04-01 08:04:32","c79472ad15d8b617a4d57d5bf56a810f","116.7.221.23","Mozilla/5.0 (Windows NT 10.0; Win64; x64) AppleWebKit/537.36 (KHTML, like Gecko) Chrome/100.0.4896.60 Safari/537.36","WebKit","Chrome","100.0.4896.60","Windows","10.0","null","null","","","<p style=""font-size:64px;"">+</p>","P_6_6_P",""
"","","","","","html-keyboard-response","89","403223","0.0-2.0-4.0-0.0-1.4","14","1","2022-04-01 08:04:32","c79472ad15d8b617a4d57d5bf56a810f","116.7.221.23","Mozilla/5.0 (Windows NT 10.0; Win64; x64) AppleWebKit/537.36 (KHTML, like Gecko) Chrome/100.0.4896.60 Safari/537.36","WebKit","Chrome","100.0.4896.60","Windows","10.0","null","null","","","
                        <div class=orange>
                        <div class=""centered"">
                            <p style=""font-size: 24px""><b>53%</b></p>
                        </div>","P_6_6_P",""
"","","","","","html-keyboard-response","90","403625","0.0-2.0-4.0-0.0-0.5","14","1","2022-04-01 08:04:32","c79472ad15d8b617a4d57d5bf56a810f","116.7.221.23","Mozilla/5.0 (Windows NT 10.0; Win64; x64) AppleWebKit/537.36 (KHTML, like Gecko) Chrome/100.0.4896.60 Safari/537.36","WebKit","Chrome","100.0.4896.60","Windows","10.0","null","null","","","<p style=""font-size:64px;"">+</p>","P_6_6_P",""
"","","","","","html-keyboard-response","91","404876","0.0-2.0-4.0-0.0-1.5","14","1","2022-04-01 08:04:32","c79472ad15d8b617a4d57d5bf56a810f","116.7.221.23","Mozilla/5.0 (Windows NT 10.0; Win64; x64) AppleWebKit/537.36 (KHTML, like Gecko) Chrome/100.0.4896.60 Safari/537.36","WebKit","Chrome","100.0.4896.60","Windows","10.0","null","null","","","
                        <div class=pink>
                        <div class=""centered"">
                            <p style=""font-size: 24px""><b>54%</b></p>
                        </div>","P_6_6_P",""
"","","","","","html-keyboard-response","92","405279","0.0-2.0-4.0-1.0-0.0","14","1","2022-04-01 08:04:32","c79472ad15d8b617a4d57d5bf56a810f","116.7.221.23","Mozilla/5.0 (Windows NT 10.0; Win64; x64) AppleWebKit/537.36 (KHTML, like Gecko) Chrome/100.0.4896.60 Safari/537.36","WebKit","Chrome","100.0.4896.60","Windows","10.0","null","null","","","<p style=""font-size:64px;"">+</p>","P_6_6_P",""
"","","","","","html-keyboard-response","93","406531","0.0-2.0-4.0-1.0-1.0","14","1","2022-04-01 08:04:32","c79472ad15d8b617a4d57d5bf56a810f","116.7.221.23","Mozilla/5.0 (Windows NT 10.0; Win64; x64) AppleWebKit/537.36 (KHTML, like Gecko) Chrome/100.0.4896.60 Safari/537.36","WebKit","Chrome","100.0.4896.60","Windows","10.0","null","null","","","
                        <div class=""pink"">
                        <div class=""centered"">
                            <p style=""font-size: 24px""><b>50%</b></p>
                        </div>","P_6_6_P",""
"","","","","","html-slider-response","94","408972","0.0-2.0-4.0-2.0","14","1","2022-04-01 08:04:32","c79472ad15d8b617a4d57d5bf56a810f","116.7.221.23","Mozilla/5.0 (Windows NT 10.0; Win64; x64) AppleWebKit/537.36 (KHTML, like Gecko) Chrome/100.0.4896.60 Safari/537.36","WebKit","Chrome","100.0.4896.60","Windows","10.0","2440.6000000089407","17","","","<div style=""width: 500px; height: 100px;""><p>Place your bid for more information.</p></div>","infoBid","15"
"","","","","","html-keyboard-response","95","409374","0.0-2.0-4.0-3.0-0.0","14","1","2022-04-01 08:04:32","c79472ad15d8b617a4d57d5bf56a810f","116.7.221.23","Mozilla/5.0 (Windows NT 10.0; Win64; x64) AppleWebKit/537.36 (KHTML, like Gecko) Chrome/100.0.4896.60 Safari/537.36","WebKit","Chrome","100.0.4896.60","Windows","10.0","null","null","","","<p style=""font-size:64px;"">+</p>","P_6_6_P",""
"","","","","","html-keyboard-response","96","410625","0.0-2.0-4.0-3.0-1.0","14","1","2022-04-01 08:04:32","c79472ad15d8b617a4d57d5bf56a810f","116.7.221.23","Mozilla/5.0 (Windows NT 10.0; Win64; x64) AppleWebKit/537.36 (KHTML, like Gecko) Chrome/100.0.4896.60 Safari/537.36","WebKit","Chrome","100.0.4896.60","Windows","10.0","null","null","","","<div class=""grey"">
                <div class=""centered"">
                    <p style=""font-size: 24px""><b>???</b></p>
                </div>","P_6_6_P",""
"","","","","","html-keyboard-response","97","411584","0.0-2.0-4.0-4.0-0.0","14","1","2022-04-01 08:04:32","c79472ad15d8b617a4d57d5bf56a810f","116.7.221.23","Mozilla/5.0 (Windows NT 10.0; Win64; x64) AppleWebKit/537.36 (KHTML, like Gecko) Chrome/100.0.4896.60 Safari/537.36","WebKit","Chrome","100.0.4896.60","Windows","10.0","957.9000000059605","j","","","
                      <div class=""row"">

                          <div class=""column"">
                              <div class=""orange""></div>
                              <div class=""leftChoiceText"">
                                  <p style=""font-size: 32px""><b>F</b></p>
                              </div>
                          </div>

                          <div class=""column"">
                              <div class=""pink""></div>
                              <div class=""rightChoiceText"">
                                  <p style=""font-size: 32px""><b>J</b></p>
                              </div>
                          </div>

                      </div>

                      <div class=""centeredTop"">
                          Which colour do you<br>
                          predict will win?
                      </div>","P_6_6_P",""
"","","","","","html-keyboard-response","98","413085","0.0-2.0-4.0-4.0-1.0","14","1","2022-04-01 08:04:32","c79472ad15d8b617a4d57d5bf56a810f","116.7.221.23","Mozilla/5.0 (Windows NT 10.0; Win64; x64) AppleWebKit/537.36 (KHTML, like Gecko) Chrome/100.0.4896.60 Safari/537.36","WebKit","Chrome","100.0.4896.60","Windows","10.0","null","null","","","<p style=""font-size:64px;"">+</p>","P_6_6_P",""
"","","","","","html-keyboard-response","99","413488","0.0-2.0-5.0-0.0-0.0","14","1","2022-04-01 08:04:32","c79472ad15d8b617a4d57d5bf56a810f","116.7.221.23","Mozilla/5.0 (Windows NT 10.0; Win64; x64) AppleWebKit/537.36 (KHTML, like Gecko) Chrome/100.0.4896.60 Safari/537.36","WebKit","Chrome","100.0.4896.60","Windows","10.0","null","null","","","<p style=""font-size:64px;"">+</p>","P_4_4_O",""
"","","","","","html-keyboard-response","100","414740","0.0-2.0-5.0-0.0-1.0","14","1","2022-04-01 08:04:32","c79472ad15d8b617a4d57d5bf56a810f","116.7.221.23","Mozilla/5.0 (Windows NT 10.0; Win64; x64) AppleWebKit/537.36 (KHTML, like Gecko) Chrome/100.0.4896.60 Safari/537.36","WebKit","Chrome","100.0.4896.60","Windows","10.0","null","null","","","
                        <div class=orange>
                        <div class=""centered"">
                            <p style=""font-size: 24px""><b>52%</b></p>
                        </div>","P_4_4_O",""
"","","","","","html-keyboard-response","101","415143","0.0-2.0-5.0-0.0-0.1","14","1","2022-04-01 08:04:32","c79472ad15d8b617a4d57d5bf56a810f","116.7.221.23","Mozilla/5.0 (Windows NT 10.0; Win64; x64) AppleWebKit/537.36 (KHTML, like Gecko) Chrome/100.0.4896.60 Safari/537.36","WebKit","Chrome","100.0.4896.60","Windows","10.0","null","null","","","<p style=""font-size:64px;"">+</p>","P_4_4_O",""
"","","","","","html-keyboard-response","102","416394","0.0-2.0-5.0-0.0-1.1","14","1","2022-04-01 08:04:32","c79472ad15d8b617a4d57d5bf56a810f","116.7.221.23","Mozilla/5.0 (Windows NT 10.0; Win64; x64) AppleWebKit/537.36 (KHTML, like Gecko) Chrome/100.0.4896.60 Safari/537.36","WebKit","Chrome","100.0.4896.60","Windows","10.0","null","null","","","
                        <div class=pink>
                        <div class=""centered"">
                            <p style=""font-size: 24px""><b>55%</b></p>
                        </div>","P_4_4_O",""
"","","","","","html-keyboard-response","103","416796","0.0-2.0-5.0-0.0-0.2","14","1","2022-04-01 08:04:32","c79472ad15d8b617a4d57d5bf56a810f","116.7.221.23","Mozilla/5.0 (Windows NT 10.0; Win64; x64) AppleWebKit/537.36 (KHTML, like Gecko) Chrome/100.0.4896.60 Safari/537.36","WebKit","Chrome","100.0.4896.60","Windows","10.0","null","null","","","<p style=""font-size:64px;"">+</p>","P_4_4_O",""
"","","","","","html-keyboard-response","104","418048","0.0-2.0-5.0-0.0-1.2","14","1","2022-04-01 08:04:32","c79472ad15d8b617a4d57d5bf56a810f","116.7.221.23","Mozilla/5.0 (Windows NT 10.0; Win64; x64) AppleWebKit/537.36 (KHTML, like Gecko) Chrome/100.0.4896.60 Safari/537.36","WebKit","Chrome","100.0.4896.60","Windows","10.0","null","null","","","
                        <div class=orange>
                        <div class=""centered"">
                            <p style=""font-size: 24px""><b>55%</b></p>
                        </div>","P_4_4_O",""
"","","","","","html-keyboard-response","105","418449","0.0-2.0-5.0-0.0-0.3","14","1","2022-04-01 08:04:32","c79472ad15d8b617a4d57d5bf56a810f","116.7.221.23","Mozilla/5.0 (Windows NT 10.0; Win64; x64) AppleWebKit/537.36 (KHTML, like Gecko) Chrome/100.0.4896.60 Safari/537.36","WebKit","Chrome","100.0.4896.60","Windows","10.0","null","null","","","<p style=""font-size:64px;"">+</p>","P_4_4_O",""
"","","","","","html-keyboard-response","106","419701","0.0-2.0-5.0-0.0-1.3","14","1","2022-04-01 08:04:32","c79472ad15d8b617a4d57d5bf56a810f","116.7.221.23","Mozilla/5.0 (Windows NT 10.0; Win64; x64) AppleWebKit/537.36 (KHTML, like Gecko) Chrome/100.0.4896.60 Safari/537.36","WebKit","Chrome","100.0.4896.60","Windows","10.0","null","null","","","
                        <div class=pink>
                        <div class=""centered"">
                            <p style=""font-size: 24px""><b>54%</b></p>
                        </div>","P_4_4_O",""
"","","","","","html-keyboard-response","107","420102","0.0-2.0-5.0-0.0-0.4","14","1","2022-04-01 08:04:32","c79472ad15d8b617a4d57d5bf56a810f","116.7.221.23","Mozilla/5.0 (Windows NT 10.0; Win64; x64) AppleWebKit/537.36 (KHTML, like Gecko) Chrome/100.0.4896.60 Safari/537.36","WebKit","Chrome","100.0.4896.60","Windows","10.0","null","null","","","<p style=""font-size:64px;"">+</p>","P_4_4_O",""
"","","","","","html-keyboard-response","108","421354","0.0-2.0-5.0-0.0-1.4","14","1","2022-04-01 08:04:32","c79472ad15d8b617a4d57d5bf56a810f","116.7.221.23","Mozilla/5.0 (Windows NT 10.0; Win64; x64) AppleWebKit/537.36 (KHTML, like Gecko) Chrome/100.0.4896.60 Safari/537.36","WebKit","Chrome","100.0.4896.60","Windows","10.0","null","null","","","
                        <div class=orange>
                        <div class=""centered"">
                            <p style=""font-size: 24px""><b>52%</b></p>
                        </div>","P_4_4_O",""
"","","","","","html-keyboard-response","109","421756","0.0-2.0-5.0-0.0-0.5","14","1","2022-04-01 08:04:32","c79472ad15d8b617a4d57d5bf56a810f","116.7.221.23","Mozilla/5.0 (Windows NT 10.0; Win64; x64) AppleWebKit/537.36 (KHTML, like Gecko) Chrome/100.0.4896.60 Safari/537.36","WebKit","Chrome","100.0.4896.60","Windows","10.0","null","null","","","<p style=""font-size:64px;"">+</p>","P_4_4_O",""
"","","","","","html-keyboard-response","110","423007","0.0-2.0-5.0-0.0-1.5","14","1","2022-04-01 08:04:32","c79472ad15d8b617a4d57d5bf56a810f","116.7.221.23","Mozilla/5.0 (Windows NT 10.0; Win64; x64) AppleWebKit/537.36 (KHTML, like Gecko) Chrome/100.0.4896.60 Safari/537.36","WebKit","Chrome","100.0.4896.60","Windows","10.0","null","null","","","
                        <div class=pink>
                        <div class=""centered"">
                            <p style=""font-size: 24px""><b>54%</b></p>
                        </div>","P_4_4_O",""
"","","","","","html-keyboard-response","111","423408","0.0-2.0-5.0-1.0-0.0","14","1","2022-04-01 08:04:32","c79472ad15d8b617a4d57d5bf56a810f","116.7.221.23","Mozilla/5.0 (Windows NT 10.0; Win64; x64) AppleWebKit/537.36 (KHTML, like Gecko) Chrome/100.0.4896.60 Safari/537.36","WebKit","Chrome","100.0.4896.60","Windows","10.0","null","null","","","<p style=""font-size:64px;"">+</p>","P_4_4_O",""
"","","","","","html-keyboard-response","112","424659","0.0-2.0-5.0-1.0-1.0","14","1","2022-04-01 08:04:32","c79472ad15d8b617a4d57d5bf56a810f","116.7.221.23","Mozilla/5.0 (Windows NT 10.0; Win64; x64) AppleWebKit/537.36 (KHTML, like Gecko) Chrome/100.0.4896.60 Safari/537.36","WebKit","Chrome","100.0.4896.60","Windows","10.0","null","null","","","
                        <div class=""orange"">
                        <div class=""centered"">
                            <p style=""font-size: 24px""><b>50%</b></p>
                        </div>","P_4_4_O",""
"","","","","","html-slider-response","113","432184","0.0-2.0-5.0-2.0","14","1","2022-04-01 08:04:32","c79472ad15d8b617a4d57d5bf56a810f","116.7.221.23","Mozilla/5.0 (Windows NT 10.0; Win64; x64) AppleWebKit/537.36 (KHTML, like Gecko) Chrome/100.0.4896.60 Safari/537.36","WebKit","Chrome","100.0.4896.60","Windows","10.0","7524","27","","","<div style=""width: 500px; height: 100px;""><p>Place your bid for more information.</p></div>","infoBid","14"
"","","","","","html-keyboard-response","114","432588","0.0-2.0-5.0-3.0-0.0","14","1","2022-04-01 08:04:32","c79472ad15d8b617a4d57d5bf56a810f","116.7.221.23","Mozilla/5.0 (Windows NT 10.0; Win64; x64) AppleWebKit/537.36 (KHTML, like Gecko) Chrome/100.0.4896.60 Safari/537.36","WebKit","Chrome","100.0.4896.60","Windows","10.0","null","null","","","<p style=""font-size:64px;"">+</p>","P_4_4_O",""
"","","","","","html-keyboard-response","115","433840","0.0-2.0-5.0-3.0-1.0","14","1","2022-04-01 08:04:32","c79472ad15d8b617a4d57d5bf56a810f","116.7.221.23","Mozilla/5.0 (Windows NT 10.0; Win64; x64) AppleWebKit/537.36 (KHTML, like Gecko) Chrome/100.0.4896.60 Safari/537.36","WebKit","Chrome","100.0.4896.60","Windows","10.0","null","null","","","<div class=orange>
                <div class=""centered"">
                    <p style=""font-size: 24px""><b>52%</b></p>
                </div>","P_4_4_O",""
"","","","","","html-keyboard-response","116","440218","0.0-2.0-5.0-4.0-0.0","14","1","2022-04-01 08:04:32","c79472ad15d8b617a4d57d5bf56a810f","116.7.221.23","Mozilla/5.0 (Windows NT 10.0; Win64; x64) AppleWebKit/537.36 (KHTML, like Gecko) Chrome/100.0.4896.60 Safari/537.36","WebKit","Chrome","100.0.4896.60","Windows","10.0","6377.29999999702","f","","","
                      <div class=""row"">

                          <div class=""column"">
                              <div class=""orange""></div>
                              <div class=""leftChoiceText"">
                                  <p style=""font-size: 32px""><b>F</b></p>
                              </div>
                          </div>

                          <div class=""column"">
                              <div class=""pink""></div>
                              <div class=""rightChoiceText"">
                                  <p style=""font-size: 32px""><b>J</b></p>
                              </div>
                          </div>

                      </div>

                      <div class=""centeredTop"">
                          Which colour do you<br>
                          predict will win?
                      </div>","P_4_4_O",""
"","","","","","html-keyboard-response","117","441720","0.0-2.0-5.0-4.0-1.0","14","1","2022-04-01 08:04:32","c79472ad15d8b617a4d57d5bf56a810f","116.7.221.23","Mozilla/5.0 (Windows NT 10.0; Win64; x64) AppleWebKit/537.36 (KHTML, like Gecko) Chrome/100.0.4896.60 Safari/537.36","WebKit","Chrome","100.0.4896.60","Windows","10.0","null","null","","","<p style=""font-size:64px;"">+</p>","P_4_4_O",""
"","","","","","html-keyboard-response","118","442121","0.0-2.0-6.0-0.0-0.0","14","1","2022-04-01 08:04:32","c79472ad15d8b617a4d57d5bf56a810f","116.7.221.23","Mozilla/5.0 (Windows NT 10.0; Win64; x64) AppleWebKit/537.36 (KHTML, like Gecko) Chrome/100.0.4896.60 Safari/537.36","WebKit","Chrome","100.0.4896.60","Windows","10.0","null","null","","","<p style=""font-size:64px;"">+</p>","O_2_3_O",""
"","","","","","html-keyboard-response","119","443373","0.0-2.0-6.0-0.0-1.0","14","1","2022-04-01 08:04:32","c79472ad15d8b617a4d57d5bf56a810f","116.7.221.23","Mozilla/5.0 (Windows NT 10.0; Win64; x64) AppleWebKit/537.36 (KHTML, like Gecko) Chrome/100.0.4896.60 Safari/537.36","WebKit","Chrome","100.0.4896.60","Windows","10.0","null","null","","","
                        <div class=pink>
                        <div class=""centered"">
                            <p style=""font-size: 24px""><b>54%</b></p>
                        </div>","O_2_3_O",""
"","","","","","html-keyboard-response","120","443774","0.0-2.0-6.0-0.0-0.1","14","1","2022-04-01 08:04:32","c79472ad15d8b617a4d57d5bf56a810f","116.7.221.23","Mozilla/5.0 (Windows NT 10.0; Win64; x64) AppleWebKit/537.36 (KHTML, like Gecko) Chrome/100.0.4896.60 Safari/537.36","WebKit","Chrome","100.0.4896.60","Windows","10.0","null","null","","","<p style=""font-size:64px;"">+</p>","O_2_3_O",""
"","","","","","html-keyboard-response","121","445025","0.0-2.0-6.0-0.0-1.1","14","1","2022-04-01 08:04:32","c79472ad15d8b617a4d57d5bf56a810f","116.7.221.23","Mozilla/5.0 (Windows NT 10.0; Win64; x64) AppleWebKit/537.36 (KHTML, like Gecko) Chrome/100.0.4896.60 Safari/537.36","WebKit","Chrome","100.0.4896.60","Windows","10.0","null","null","","","
                        <div class=orange>
                        <div class=""centered"">
                            <p style=""font-size: 24px""><b>54%</b></p>
                        </div>","O_2_3_O",""
"","","","","","html-keyboard-response","122","445427","0.0-2.0-6.0-0.0-0.2","14","1","2022-04-01 08:04:32","c79472ad15d8b617a4d57d5bf56a810f","116.7.221.23","Mozilla/5.0 (Windows NT 10.0; Win64; x64) AppleWebKit/537.36 (KHTML, like Gecko) Chrome/100.0.4896.60 Safari/537.36","WebKit","Chrome","100.0.4896.60","Windows","10.0","null","null","","","<p style=""font-size:64px;"">+</p>","O_2_3_O",""
"","","","","","html-keyboard-response","123","446678","0.0-2.0-6.0-0.0-1.2","14","1","2022-04-01 08:04:32","c79472ad15d8b617a4d57d5bf56a810f","116.7.221.23","Mozilla/5.0 (Windows NT 10.0; Win64; x64) AppleWebKit/537.36 (KHTML, like Gecko) Chrome/100.0.4896.60 Safari/537.36","WebKit","Chrome","100.0.4896.60","Windows","10.0","null","null","","","
                        <div class=pink>
                        <div class=""centered"">
                            <p style=""font-size: 24px""><b>52%</b></p>
                        </div>","O_2_3_O",""
"","","","","","html-keyboard-response","124","447080","0.0-2.0-6.0-0.0-0.3","14","1","2022-04-01 08:04:32","c79472ad15d8b617a4d57d5bf56a810f","116.7.221.23","Mozilla/5.0 (Windows NT 10.0; Win64; x64) AppleWebKit/537.36 (KHTML, like Gecko) Chrome/100.0.4896.60 Safari/537.36","WebKit","Chrome","100.0.4896.60","Windows","10.0","null","null","","","<p style=""font-size:64px;"">+</p>","O_2_3_O",""
"","","","","","html-keyboard-response","125","448332","0.0-2.0-6.0-0.0-1.3","14","1","2022-04-01 08:04:32","c79472ad15d8b617a4d57d5bf56a810f","116.7.221.23","Mozilla/5.0 (Windows NT 10.0; Win64; x64) AppleWebKit/537.36 (KHTML, like Gecko) Chrome/100.0.4896.60 Safari/537.36","WebKit","Chrome","100.0.4896.60","Windows","10.0","null","null","","","
                        <div class=orange>
                        <div class=""centered"">
                            <p style=""font-size: 24px""><b>53%</b></p>
                        </div>","O_2_3_O",""
"","","","","","html-keyboard-response","126","448734","0.0-2.0-6.0-0.0-0.4","14","1","2022-04-01 08:04:32","c79472ad15d8b617a4d57d5bf56a810f","116.7.221.23","Mozilla/5.0 (Windows NT 10.0; Win64; x64) AppleWebKit/537.36 (KHTML, like Gecko) Chrome/100.0.4896.60 Safari/537.36","WebKit","Chrome","100.0.4896.60","Windows","10.0","null","null","","","<p style=""font-size:64px;"">+</p>","O_2_3_O",""
"","","","","","html-keyboard-response","127","449986","0.0-2.0-6.0-0.0-1.4","14","1","2022-04-01 08:04:32","c79472ad15d8b617a4d57d5bf56a810f","116.7.221.23","Mozilla/5.0 (Windows NT 10.0; Win64; x64) AppleWebKit/537.36 (KHTML, like Gecko) Chrome/100.0.4896.60 Safari/537.36","WebKit","Chrome","100.0.4896.60","Windows","10.0","null","null","","","
                        <div class=pink>
                        <div class=""centered"">
                            <p style=""font-size: 24px""><b>52%</b></p>
                        </div>","O_2_3_O",""
"","","","","","html-keyboard-response","128","450389","0.0-2.0-6.0-0.0-0.5","14","1","2022-04-01 08:04:32","c79472ad15d8b617a4d57d5bf56a810f","116.7.221.23","Mozilla/5.0 (Windows NT 10.0; Win64; x64) AppleWebKit/537.36 (KHTML, like Gecko) Chrome/100.0.4896.60 Safari/537.36","WebKit","Chrome","100.0.4896.60","Windows","10.0","null","null","","","<p style=""font-size:64px;"">+</p>","O_2_3_O",""
"","","","","","html-keyboard-response","129","451641","0.0-2.0-6.0-0.0-1.5","14","1","2022-04-01 08:04:32","c79472ad15d8b617a4d57d5bf56a810f","116.7.221.23","Mozilla/5.0 (Windows NT 10.0; Win64; x64) AppleWebKit/537.36 (KHTML, like Gecko) Chrome/100.0.4896.60 Safari/537.36","WebKit","Chrome","100.0.4896.60","Windows","10.0","null","null","","","
                        <div class=orange>
                        <div class=""centered"">
                            <p style=""font-size: 24px""><b>53%</b></p>
                        </div>","O_2_3_O",""
"","","","","","html-keyboard-response","130","452042","0.0-2.0-6.0-1.0-0.0","14","1","2022-04-01 08:04:32","c79472ad15d8b617a4d57d5bf56a810f","116.7.221.23","Mozilla/5.0 (Windows NT 10.0; Win64; x64) AppleWebKit/537.36 (KHTML, like Gecko) Chrome/100.0.4896.60 Safari/537.36","WebKit","Chrome","100.0.4896.60","Windows","10.0","null","null","","","<p style=""font-size:64px;"">+</p>","O_2_3_O",""
"","","","","","html-keyboard-response","131","453293","0.0-2.0-6.0-1.0-1.0","14","1","2022-04-01 08:04:32","c79472ad15d8b617a4d57d5bf56a810f","116.7.221.23","Mozilla/5.0 (Windows NT 10.0; Win64; x64) AppleWebKit/537.36 (KHTML, like Gecko) Chrome/100.0.4896.60 Safari/537.36","WebKit","Chrome","100.0.4896.60","Windows","10.0","null","null","","","
                        <div class=""orange"">
                        <div class=""centered"">
                            <p style=""font-size: 24px""><b>50%</b></p>
                        </div>","O_2_3_O",""
"","","","","","html-slider-response","132","456673","0.0-2.0-6.0-2.0","14","1","2022-04-01 08:04:32","c79472ad15d8b617a4d57d5bf56a810f","116.7.221.23","Mozilla/5.0 (Windows NT 10.0; Win64; x64) AppleWebKit/537.36 (KHTML, like Gecko) Chrome/100.0.4896.60 Safari/537.36","WebKit","Chrome","100.0.4896.60","Windows","10.0","3379.0999999940395","17","","","<div style=""width: 500px; height: 100px;""><p>Place your bid for more information.</p></div>","infoBid","13"
"","","","","","html-keyboard-response","133","457075","0.0-2.0-6.0-3.0-0.0","14","1","2022-04-01 08:04:32","c79472ad15d8b617a4d57d5bf56a810f","116.7.221.23","Mozilla/5.0 (Windows NT 10.0; Win64; x64) AppleWebKit/537.36 (KHTML, like Gecko) Chrome/100.0.4896.60 Safari/537.36","WebKit","Chrome","100.0.4896.60","Windows","10.0","null","null","","","<p style=""font-size:64px;"">+</p>","O_2_3_O",""
"","","","","","html-keyboard-response","134","458327","0.0-2.0-6.0-3.0-1.0","14","1","2022-04-01 08:04:32","c79472ad15d8b617a4d57d5bf56a810f","116.7.221.23","Mozilla/5.0 (Windows NT 10.0; Win64; x64) AppleWebKit/537.36 (KHTML, like Gecko) Chrome/100.0.4896.60 Safari/537.36","WebKit","Chrome","100.0.4896.60","Windows","10.0","null","null","","","<div class=""grey"">
                <div class=""centered"">
                    <p style=""font-size: 24px""><b>???</b></p>
                </div>","O_2_3_O",""
"","","","","","html-keyboard-response","135","460381","0.0-2.0-6.0-4.0-0.0","14","1","2022-04-01 08:04:32","c79472ad15d8b617a4d57d5bf56a810f","116.7.221.23","Mozilla/5.0 (Windows NT 10.0; Win64; x64) AppleWebKit/537.36 (KHTML, like Gecko) Chrome/100.0.4896.60 Safari/537.36","WebKit","Chrome","100.0.4896.60","Windows","10.0","2052.5","f","","","
                      <div class=""row"">

                          <div class=""column"">
                              <div class=""orange""></div>
                              <div class=""leftChoiceText"">
                                  <p style=""font-size: 32px""><b>F</b></p>
                              </div>
                          </div>

                          <div class=""column"">
                              <div class=""pink""></div>
                              <div class=""rightChoiceText"">
                                  <p style=""font-size: 32px""><b>J</b></p>
                              </div>
                          </div>

                      </div>

                      <div class=""centeredTop"">
                          Which colour do you<br>
                          predict will win?
                      </div>","O_2_3_O",""
"","","","","","html-keyboard-response","136","461883","0.0-2.0-6.0-4.0-1.0","14","1","2022-04-01 08:04:32","c79472ad15d8b617a4d57d5bf56a810f","116.7.221.23","Mozilla/5.0 (Windows NT 10.0; Win64; x64) AppleWebKit/537.36 (KHTML, like Gecko) Chrome/100.0.4896.60 Safari/537.36","WebKit","Chrome","100.0.4896.60","Windows","10.0","null","null","","","<p style=""font-size:64px;"">+</p>","O_2_3_O",""
"","","","","","html-keyboard-response","137","462285","0.0-2.0-7.0-0.0-0.0","14","1","2022-04-01 08:04:32","c79472ad15d8b617a4d57d5bf56a810f","116.7.221.23","Mozilla/5.0 (Windows NT 10.0; Win64; x64) AppleWebKit/537.36 (KHTML, like Gecko) Chrome/100.0.4896.60 Safari/537.36","WebKit","Chrome","100.0.4896.60","Windows","10.0","null","null","","","<p style=""font-size:64px;"">+</p>","O_6_6_P",""
"","","","","","html-keyboard-response","138","463536","0.0-2.0-7.0-0.0-1.0","14","1","2022-04-01 08:04:32","c79472ad15d8b617a4d57d5bf56a810f","116.7.221.23","Mozilla/5.0 (Windows NT 10.0; Win64; x64) AppleWebKit/537.36 (KHTML, like Gecko) Chrome/100.0.4896.60 Safari/537.36","WebKit","Chrome","100.0.4896.60","Windows","10.0","null","null","","","
                        <div class=orange>
                        <div class=""centered"">
                            <p style=""font-size: 24px""><b>54%</b></p>
                        </div>","O_6_6_P",""
"","","","","","html-keyboard-response","139","463937","0.0-2.0-7.0-0.0-0.1","14","1","2022-04-01 08:04:32","c79472ad15d8b617a4d57d5bf56a810f","116.7.221.23","Mozilla/5.0 (Windows NT 10.0; Win64; x64) AppleWebKit/537.36 (KHTML, like Gecko) Chrome/100.0.4896.60 Safari/537.36","WebKit","Chrome","100.0.4896.60","Windows","10.0","null","null","","","<p style=""font-size:64px;"">+</p>","O_6_6_P",""
"","","","","","html-keyboard-response","140","465189","0.0-2.0-7.0-0.0-1.1","14","1","2022-04-01 08:04:32","c79472ad15d8b617a4d57d5bf56a810f","116.7.221.23","Mozilla/5.0 (Windows NT 10.0; Win64; x64) AppleWebKit/537.36 (KHTML, like Gecko) Chrome/100.0.4896.60 Safari/537.36","WebKit","Chrome","100.0.4896.60","Windows","10.0","null","null","","","
                        <div class=pink>
                        <div class=""centered"">
                            <p style=""font-size: 24px""><b>53%</b></p>
                        </div>","O_6_6_P",""
"","","","","","html-keyboard-response","141","465589","0.0-2.0-7.0-0.0-0.2","14","1","2022-04-01 08:04:32","c79472ad15d8b617a4d57d5bf56a810f","116.7.221.23","Mozilla/5.0 (Windows NT 10.0; Win64; x64) AppleWebKit/537.36 (KHTML, like Gecko) Chrome/100.0.4896.60 Safari/537.36","WebKit","Chrome","100.0.4896.60","Windows","10.0","null","null","","","<p style=""font-size:64px;"">+</p>","O_6_6_P",""
"","","","","","html-keyboard-response","142","466841","0.0-2.0-7.0-0.0-1.2","14","1","2022-04-01 08:04:32","c79472ad15d8b617a4d57d5bf56a810f","116.7.221.23","Mozilla/5.0 (Windows NT 10.0; Win64; x64) AppleWebKit/537.36 (KHTML, like Gecko) Chrome/100.0.4896.60 Safari/537.36","WebKit","Chrome","100.0.4896.60","Windows","10.0","null","null","","","
                        <div class=pink>
                        <div class=""centered"">
                            <p style=""font-size: 24px""><b>53%</b></p>
                        </div>","O_6_6_P",""
"","","","","","html-keyboard-response","143","467243","0.0-2.0-7.0-0.0-0.3","14","1","2022-04-01 08:04:32","c79472ad15d8b617a4d57d5bf56a810f","116.7.221.23","Mozilla/5.0 (Windows NT 10.0; Win64; x64) AppleWebKit/537.36 (KHTML, like Gecko) Chrome/100.0.4896.60 Safari/537.36","WebKit","Chrome","100.0.4896.60","Windows","10.0","null","null","","","<p style=""font-size:64px;"">+</p>","O_6_6_P",""
"","","","","","html-keyboard-response","144","468495","0.0-2.0-7.0-0.0-1.3","14","1","2022-04-01 08:04:32","c79472ad15d8b617a4d57d5bf56a810f","116.7.221.23","Mozilla/5.0 (Windows NT 10.0; Win64; x64) AppleWebKit/537.36 (KHTML, like Gecko) Chrome/100.0.4896.60 Safari/537.36","WebKit","Chrome","100.0.4896.60","Windows","10.0","null","null","","","
                        <div class=orange>
                        <div class=""centered"">
                            <p style=""font-size: 24px""><b>55%</b></p>
                        </div>","O_6_6_P",""
"","","","","","html-keyboard-response","145","468896","0.0-2.0-7.0-0.0-0.4","14","1","2022-04-01 08:04:32","c79472ad15d8b617a4d57d5bf56a810f","116.7.221.23","Mozilla/5.0 (Windows NT 10.0; Win64; x64) AppleWebKit/537.36 (KHTML, like Gecko) Chrome/100.0.4896.60 Safari/537.36","WebKit","Chrome","100.0.4896.60","Windows","10.0","null","null","","","<p style=""font-size:64px;"">+</p>","O_6_6_P",""
"","","","","","html-keyboard-response","146","470158","0.0-2.0-7.0-0.0-1.4","14","1","2022-04-01 08:04:32","c79472ad15d8b617a4d57d5bf56a810f","116.7.221.23","Mozilla/5.0 (Windows NT 10.0; Win64; x64) AppleWebKit/537.36 (KHTML, like Gecko) Chrome/100.0.4896.60 Safari/537.36","WebKit","Chrome","100.0.4896.60","Windows","10.0","null","null","","","
                        <div class=orange>
                        <div class=""centered"">
                            <p style=""font-size: 24px""><b>55%</b></p>
                        </div>","O_6_6_P",""
"","","","","","html-keyboard-response","147","470561","0.0-2.0-7.0-0.0-0.5","14","1","2022-04-01 08:04:32","c79472ad15d8b617a4d57d5bf56a810f","116.7.221.23","Mozilla/5.0 (Windows NT 10.0; Win64; x64) AppleWebKit/537.36 (KHTML, like Gecko) Chrome/100.0.4896.60 Safari/537.36","WebKit","Chrome","100.0.4896.60","Windows","10.0","null","null","","","<p style=""font-size:64px;"">+</p>","O_6_6_P",""
"","","","","","html-keyboard-response","148","471813","0.0-2.0-7.0-0.0-1.5","14","1","2022-04-01 08:04:32","c79472ad15d8b617a4d57d5bf56a810f","116.7.221.23","Mozilla/5.0 (Windows NT 10.0; Win64; x64) AppleWebKit/537.36 (KHTML, like Gecko) Chrome/100.0.4896.60 Safari/537.36","WebKit","Chrome","100.0.4896.60","Windows","10.0","null","null","","","
                        <div class=pink>
                        <div class=""centered"">
                            <p style=""font-size: 24px""><b>52%</b></p>
                        </div>","O_6_6_P",""
"","","","","","html-keyboard-response","149","472215","0.0-2.0-7.0-1.0-0.0","14","1","2022-04-01 08:04:32","c79472ad15d8b617a4d57d5bf56a810f","116.7.221.23","Mozilla/5.0 (Windows NT 10.0; Win64; x64) AppleWebKit/537.36 (KHTML, like Gecko) Chrome/100.0.4896.60 Safari/537.36","WebKit","Chrome","100.0.4896.60","Windows","10.0","null","null","","","<p style=""font-size:64px;"">+</p>","O_6_6_P",""
"","","","","","html-keyboard-response","150","473466","0.0-2.0-7.0-1.0-1.0","14","1","2022-04-01 08:04:32","c79472ad15d8b617a4d57d5bf56a810f","116.7.221.23","Mozilla/5.0 (Windows NT 10.0; Win64; x64) AppleWebKit/537.36 (KHTML, like Gecko) Chrome/100.0.4896.60 Safari/537.36","WebKit","Chrome","100.0.4896.60","Windows","10.0","null","null","","","
                        <div class=""pink"">
                        <div class=""centered"">
                            <p style=""font-size: 24px""><b>50%</b></p>
                        </div>","O_6_6_P",""
"","","","","","html-slider-response","151","480597","0.0-2.0-7.0-2.0","14","1","2022-04-01 08:04:32","c79472ad15d8b617a4d57d5bf56a810f","116.7.221.23","Mozilla/5.0 (Windows NT 10.0; Win64; x64) AppleWebKit/537.36 (KHTML, like Gecko) Chrome/100.0.4896.60 Safari/537.36","WebKit","Chrome","100.0.4896.60","Windows","10.0","7129.5","17","","","<div style=""width: 500px; height: 100px;""><p>Place your bid for more information.</p></div>","infoBid","31"
"","","","","","html-keyboard-response","152","480999","0.0-2.0-7.0-3.0-0.0","14","1","2022-04-01 08:04:32","c79472ad15d8b617a4d57d5bf56a810f","116.7.221.23","Mozilla/5.0 (Windows NT 10.0; Win64; x64) AppleWebKit/537.36 (KHTML, like Gecko) Chrome/100.0.4896.60 Safari/537.36","WebKit","Chrome","100.0.4896.60","Windows","10.0","null","null","","","<p style=""font-size:64px;"">+</p>","O_6_6_P",""
"","","","","","html-keyboard-response","153","482251","0.0-2.0-7.0-3.0-1.0","14","1","2022-04-01 08:04:32","c79472ad15d8b617a4d57d5bf56a810f","116.7.221.23","Mozilla/5.0 (Windows NT 10.0; Win64; x64) AppleWebKit/537.36 (KHTML, like Gecko) Chrome/100.0.4896.60 Safari/537.36","WebKit","Chrome","100.0.4896.60","Windows","10.0","null","null","","","<div class=""grey"">
                <div class=""centered"">
                    <p style=""font-size: 24px""><b>???</b></p>
                </div>","O_6_6_P",""
"","","","","","html-keyboard-response","154","482649","0.0-2.0-7.0-4.0-0.0","14","1","2022-04-01 08:04:32","c79472ad15d8b617a4d57d5bf56a810f","116.7.221.23","Mozilla/5.0 (Windows NT 10.0; Win64; x64) AppleWebKit/537.36 (KHTML, like Gecko) Chrome/100.0.4896.60 Safari/537.36","WebKit","Chrome","100.0.4896.60","Windows","10.0","396.79999999701977","f","","","
                      <div class=""row"">

                          <div class=""column"">
                              <div class=""orange""></div>
                              <div class=""leftChoiceText"">
                                  <p style=""font-size: 32px""><b>F</b></p>
                              </div>
                          </div>

                          <div class=""column"">
                              <div class=""pink""></div>
                              <div class=""rightChoiceText"">
                                  <p style=""font-size: 32px""><b>J</b></p>
                              </div>
                          </div>

                      </div>

                      <div class=""centeredTop"">
                          Which colour do you<br>
                          predict will win?
                      </div>","O_6_6_P",""
"","","","","","html-keyboard-response","155","484149","0.0-2.0-7.0-4.0-1.0","14","1","2022-04-01 08:04:32","c79472ad15d8b617a4d57d5bf56a810f","116.7.221.23","Mozilla/5.0 (Windows NT 10.0; Win64; x64) AppleWebKit/537.36 (KHTML, like Gecko) Chrome/100.0.4896.60 Safari/537.36","WebKit","Chrome","100.0.4896.60","Windows","10.0","null","null","","","<p style=""font-size:64px;"">+</p>","O_6_6_P",""
"","","","","","html-keyboard-response","156","486779","0.0-2.0-8.0","14","1","2022-04-01 08:04:32","c79472ad15d8b617a4d57d5bf56a810f","116.7.221.23","Mozilla/5.0 (Windows NT 10.0; Win64; x64) AppleWebKit/537.36 (KHTML, like Gecko) Chrome/100.0.4896.60 Safari/537.36","WebKit","Chrome","100.0.4896.60","Windows","10.0","2629.5999999940395"," ","","","This is the end of the practice trials.<br><br>
        Press spacebar to begin the experiment.","",""
"","","","","","html-keyboard-response","157","487181","0.0-2.0-9.0-0.0-0.0","14","1","2022-04-01 08:04:32","c79472ad15d8b617a4d57d5bf56a810f","116.7.221.23","Mozilla/5.0 (Windows NT 10.0; Win64; x64) AppleWebKit/537.36 (KHTML, like Gecko) Chrome/100.0.4896.60 Safari/537.36","WebKit","Chrome","100.0.4896.60","Windows","10.0","null","null","","","<p style=""font-size:64px;"">+</p>","P_6_2_P",""
"","","","","","html-keyboard-response","158","488432","0.0-2.0-9.0-0.0-1.0","14","1","2022-04-01 08:04:32","c79472ad15d8b617a4d57d5bf56a810f","116.7.221.23","Mozilla/5.0 (Windows NT 10.0; Win64; x64) AppleWebKit/537.36 (KHTML, like Gecko) Chrome/100.0.4896.60 Safari/537.36","WebKit","Chrome","100.0.4896.60","Windows","10.0","null","null","","","
                        <div class=orange>
                        <div class=""centered"">
                            <p style=""font-size: 24px""><b>51%</b></p>
                        </div>","P_6_2_P",""
"","","","","","html-keyboard-response","159","488833","0.0-2.0-9.0-0.0-0.1","14","1","2022-04-01 08:04:32","c79472ad15d8b617a4d57d5bf56a810f","116.7.221.23","Mozilla/5.0 (Windows NT 10.0; Win64; x64) AppleWebKit/537.36 (KHTML, like Gecko) Chrome/100.0.4896.60 Safari/537.36","WebKit","Chrome","100.0.4896.60","Windows","10.0","null","null","","","<p style=""font-size:64px;"">+</p>","P_6_2_P",""
"","","","","","html-keyboard-response","160","490086","0.0-2.0-9.0-0.0-1.1","14","1","2022-04-01 08:04:32","c79472ad15d8b617a4d57d5bf56a810f","116.7.221.23","Mozilla/5.0 (Windows NT 10.0; Win64; x64) AppleWebKit/537.36 (KHTML, like Gecko) Chrome/100.0.4896.60 Safari/537.36","WebKit","Chrome","100.0.4896.60","Windows","10.0","null","null","","","
                        <div class=pink>
                        <div class=""centered"">
                            <p style=""font-size: 24px""><b>54%</b></p>
                        </div>","P_6_2_P",""
"","","","","","html-keyboard-response","161","490488","0.0-2.0-9.0-0.0-0.2","14","1","2022-04-01 08:04:32","c79472ad15d8b617a4d57d5bf56a810f","116.7.221.23","Mozilla/5.0 (Windows NT 10.0; Win64; x64) AppleWebKit/537.36 (KHTML, like Gecko) Chrome/100.0.4896.60 Safari/537.36","WebKit","Chrome","100.0.4896.60","Windows","10.0","null","null","","","<p style=""font-size:64px;"">+</p>","P_6_2_P",""
"","","","","","html-keyboard-response","162","491739","0.0-2.0-9.0-0.0-1.2","14","1","2022-04-01 08:04:32","c79472ad15d8b617a4d57d5bf56a810f","116.7.221.23","Mozilla/5.0 (Windows NT 10.0; Win64; x64) AppleWebKit/537.36 (KHTML, like Gecko) Chrome/100.0.4896.60 Safari/537.36","WebKit","Chrome","100.0.4896.60","Windows","10.0","null","null","","","
                        <div class=orange>
                        <div class=""centered"">
                            <p style=""font-size: 24px""><b>53%</b></p>
                        </div>","P_6_2_P",""
"","","","","","html-keyboard-response","163","492140","0.0-2.0-9.0-0.0-0.3","14","1","2022-04-01 08:04:32","c79472ad15d8b617a4d57d5bf56a810f","116.7.221.23","Mozilla/5.0 (Windows NT 10.0; Win64; x64) AppleWebKit/537.36 (KHTML, like Gecko) Chrome/100.0.4896.60 Safari/537.36","WebKit","Chrome","100.0.4896.60","Windows","10.0","null","null","","","<p style=""font-size:64px;"">+</p>","P_6_2_P",""
"","","","","","html-keyboard-response","164","493391","0.0-2.0-9.0-0.0-1.3","14","1","2022-04-01 08:04:32","c79472ad15d8b617a4d57d5bf56a810f","116.7.221.23","Mozilla/5.0 (Windows NT 10.0; Win64; x64) AppleWebKit/537.36 (KHTML, like Gecko) Chrome/100.0.4896.60 Safari/537.36","WebKit","Chrome","100.0.4896.60","Windows","10.0","null","null","","","
                        <div class=pink>
                        <div class=""centered"">
                            <p style=""font-size: 24px""><b>54%</b></p>
                        </div>","P_6_2_P",""
"","","","","","html-keyboard-response","165","493793","0.0-2.0-9.0-0.0-0.4","14","1","2022-04-01 08:04:32","c79472ad15d8b617a4d57d5bf56a810f","116.7.221.23","Mozilla/5.0 (Windows NT 10.0; Win64; x64) AppleWebKit/537.36 (KHTML, like Gecko) Chrome/100.0.4896.60 Safari/537.36","WebKit","Chrome","100.0.4896.60","Windows","10.0","null","null","","","<p style=""font-size:64px;"">+</p>","P_6_2_P",""
"","","","","","html-keyboard-response","166","495047","0.0-2.0-9.0-0.0-1.4","14","1","2022-04-01 08:04:32","c79472ad15d8b617a4d57d5bf56a810f","116.7.221.23","Mozilla/5.0 (Windows NT 10.0; Win64; x64) AppleWebKit/537.36 (KHTML, like Gecko) Chrome/100.0.4896.60 Safari/537.36","WebKit","Chrome","100.0.4896.60","Windows","10.0","null","null","","","
                        <div class=pink>
                        <div class=""centered"">
                            <p style=""font-size: 24px""><b>53%</b></p>
                        </div>","P_6_2_P",""
"","","","","","html-keyboard-response","167","495448","0.0-2.0-9.0-0.0-0.5","14","1","2022-04-01 08:04:32","c79472ad15d8b617a4d57d5bf56a810f","116.7.221.23","Mozilla/5.0 (Windows NT 10.0; Win64; x64) AppleWebKit/537.36 (KHTML, like Gecko) Chrome/100.0.4896.60 Safari/537.36","WebKit","Chrome","100.0.4896.60","Windows","10.0","null","null","","","<p style=""font-size:64px;"">+</p>","P_6_2_P",""
"","","","","","html-keyboard-response","168","496700","0.0-2.0-9.0-0.0-1.5","14","1","2022-04-01 08:04:32","c79472ad15d8b617a4d57d5bf56a810f","116.7.221.23","Mozilla/5.0 (Windows NT 10.0; Win64; x64) AppleWebKit/537.36 (KHTML, like Gecko) Chrome/100.0.4896.60 Safari/537.36","WebKit","Chrome","100.0.4896.60","Windows","10.0","null","null","","","
                        <div class=orange>
                        <div class=""centered"">
                            <p style=""font-size: 24px""><b>51%</b></p>
                        </div>","P_6_2_P",""
"","","","","","html-keyboard-response","169","497102","0.0-2.0-9.0-1.0-0.0","14","1","2022-04-01 08:04:32","c79472ad15d8b617a4d57d5bf56a810f","116.7.221.23","Mozilla/5.0 (Windows NT 10.0; Win64; x64) AppleWebKit/537.36 (KHTML, like Gecko) Chrome/100.0.4896.60 Safari/537.36","WebKit","Chrome","100.0.4896.60","Windows","10.0","null","null","","","<p style=""font-size:64px;"">+</p>","P_6_2_P",""
"","","","","","html-keyboard-response","170","498355","0.0-2.0-9.0-1.0-1.0","14","1","2022-04-01 08:04:32","c79472ad15d8b617a4d57d5bf56a810f","116.7.221.23","Mozilla/5.0 (Windows NT 10.0; Win64; x64) AppleWebKit/537.36 (KHTML, like Gecko) Chrome/100.0.4896.60 Safari/537.36","WebKit","Chrome","100.0.4896.60","Windows","10.0","null","null","","","
                        <div class=""pink"">
                        <div class=""centered"">
                            <p style=""font-size: 24px""><b>50%</b></p>
                        </div>","P_6_2_P",""
"","","","","","html-slider-response","171","501633","0.0-2.0-9.0-2.0","14","1","2022-04-01 08:04:32","c79472ad15d8b617a4d57d5bf56a810f","116.7.221.23","Mozilla/5.0 (Windows NT 10.0; Win64; x64) AppleWebKit/537.36 (KHTML, like Gecko) Chrome/100.0.4896.60 Safari/537.36","WebKit","Chrome","100.0.4896.60","Windows","10.0","3277.6000000089407","27","","","<div style=""width: 500px; height: 100px;""><p>Place your bid for more information.</p></div>","infoBid","24"
"","","","","","html-keyboard-response","172","502035","0.0-2.0-9.0-3.0-0.0","14","1","2022-04-01 08:04:32","c79472ad15d8b617a4d57d5bf56a810f","116.7.221.23","Mozilla/5.0 (Windows NT 10.0; Win64; x64) AppleWebKit/537.36 (KHTML, like Gecko) Chrome/100.0.4896.60 Safari/537.36","WebKit","Chrome","100.0.4896.60","Windows","10.0","null","null","","","<p style=""font-size:64px;"">+</p>","P_6_2_P",""
"","","","","","html-keyboard-response","173","503286","0.0-2.0-9.0-3.0-1.0","14","1","2022-04-01 08:04:32","c79472ad15d8b617a4d57d5bf56a810f","116.7.221.23","Mozilla/5.0 (Windows NT 10.0; Win64; x64) AppleWebKit/537.36 (KHTML, like Gecko) Chrome/100.0.4896.60 Safari/537.36","WebKit","Chrome","100.0.4896.60","Windows","10.0","null","null","","","<div class=""grey"">
                <div class=""centered"">
                    <p style=""font-size: 24px""><b>???</b></p>
                </div>","P_6_2_P",""
"","","","","","html-keyboard-response","174","504468","0.0-2.0-9.0-4.0-0.0","14","1","2022-04-01 08:04:32","c79472ad15d8b617a4d57d5bf56a810f","116.7.221.23","Mozilla/5.0 (Windows NT 10.0; Win64; x64) AppleWebKit/537.36 (KHTML, like Gecko) Chrome/100.0.4896.60 Safari/537.36","WebKit","Chrome","100.0.4896.60","Windows","10.0","1181.5","j","","","
                      <div class=""row"">

                          <div class=""column"">
                              <div class=""orange""></div>
                              <div class=""leftChoiceText"">
                                  <p style=""font-size: 32px""><b>F</b></p>
                              </div>
                          </div>

                          <div class=""column"">
                              <div class=""pink""></div>
                              <div class=""rightChoiceText"">
                                  <p style=""font-size: 32px""><b>J</b></p>
                              </div>
                          </div>

                      </div>

                      <div class=""centeredTop"">
                          Which colour do you<br>
                          predict will win?
                      </div>","P_6_2_P",""
"","","","","","html-keyboard-response","175","505970","0.0-2.0-9.0-4.0-1.0","14","1","2022-04-01 08:04:32","c79472ad15d8b617a4d57d5bf56a810f","116.7.221.23","Mozilla/5.0 (Windows NT 10.0; Win64; x64) AppleWebKit/537.36 (KHTML, like Gecko) Chrome/100.0.4896.60 Safari/537.36","WebKit","Chrome","100.0.4896.60","Windows","10.0","null","null","","","<p style=""font-size:64px;"">+</p>","P_6_2_P",""
"","","","","","html-keyboard-response","176","506373","0.0-2.0-10.0-0.0-0.0","14","1","2022-04-01 08:04:32","c79472ad15d8b617a4d57d5bf56a810f","116.7.221.23","Mozilla/5.0 (Windows NT 10.0; Win64; x64) AppleWebKit/537.36 (KHTML, like Gecko) Chrome/100.0.4896.60 Safari/537.36","WebKit","Chrome","100.0.4896.60","Windows","10.0","null","null","","","<p style=""font-size:64px;"">+</p>","O_2_5_P",""
"","","","","","html-keyboard-response","177","507625","0.0-2.0-10.0-0.0-1.0","14","1","2022-04-01 08:04:32","c79472ad15d8b617a4d57d5bf56a810f","116.7.221.23","Mozilla/5.0 (Windows NT 10.0; Win64; x64) AppleWebKit/537.36 (KHTML, like Gecko) Chrome/100.0.4896.60 Safari/537.36","WebKit","Chrome","100.0.4896.60","Windows","10.0","null","null","","","
                        <div class=orange>
                        <div class=""centered"">
                            <p style=""font-size: 24px""><b>55%</b></p>
                        </div>","O_2_5_P",""
"","","","","","html-keyboard-response","178","508027","0.0-2.0-10.0-0.0-0.1","14","1","2022-04-01 08:04:32","c79472ad15d8b617a4d57d5bf56a810f","116.7.221.23","Mozilla/5.0 (Windows NT 10.0; Win64; x64) AppleWebKit/537.36 (KHTML, like Gecko) Chrome/100.0.4896.60 Safari/537.36","WebKit","Chrome","100.0.4896.60","Windows","10.0","null","null","","","<p style=""font-size:64px;"">+</p>","O_2_5_P",""
"","","","","","html-keyboard-response","179","509278","0.0-2.0-10.0-0.0-1.1","14","1","2022-04-01 08:04:32","c79472ad15d8b617a4d57d5bf56a810f","116.7.221.23","Mozilla/5.0 (Windows NT 10.0; Win64; x64) AppleWebKit/537.36 (KHTML, like Gecko) Chrome/100.0.4896.60 Safari/537.36","WebKit","Chrome","100.0.4896.60","Windows","10.0","null","null","","","
                        <div class=orange>
                        <div class=""centered"">
                            <p style=""font-size: 24px""><b>53%</b></p>
                        </div>","O_2_5_P",""
"","","","","","html-keyboard-response","180","509679","0.0-2.0-10.0-0.0-0.2","14","1","2022-04-01 08:04:32","c79472ad15d8b617a4d57d5bf56a810f","116.7.221.23","Mozilla/5.0 (Windows NT 10.0; Win64; x64) AppleWebKit/537.36 (KHTML, like Gecko) Chrome/100.0.4896.60 Safari/537.36","WebKit","Chrome","100.0.4896.60","Windows","10.0","null","null","","","<p style=""font-size:64px;"">+</p>","O_2_5_P",""
"","","","","","html-keyboard-response","181","510931","0.0-2.0-10.0-0.0-1.2","14","1","2022-04-01 08:04:32","c79472ad15d8b617a4d57d5bf56a810f","116.7.221.23","Mozilla/5.0 (Windows NT 10.0; Win64; x64) AppleWebKit/537.36 (KHTML, like Gecko) Chrome/100.0.4896.60 Safari/537.36","WebKit","Chrome","100.0.4896.60","Windows","10.0","null","null","","","
                        <div class=pink>
                        <div class=""centered"">
                            <p style=""font-size: 24px""><b>52%</b></p>
                        </div>","O_2_5_P",""
"","","","","","html-keyboard-response","182","511333","0.0-2.0-10.0-0.0-0.3","14","1","2022-04-01 08:04:32","c79472ad15d8b617a4d57d5bf56a810f","116.7.221.23","Mozilla/5.0 (Windows NT 10.0; Win64; x64) AppleWebKit/537.36 (KHTML, like Gecko) Chrome/100.0.4896.60 Safari/537.36","WebKit","Chrome","100.0.4896.60","Windows","10.0","null","null","","","<p style=""font-size:64px;"">+</p>","O_2_5_P",""
"","","","","","html-keyboard-response","183","512584","0.0-2.0-10.0-0.0-1.3","14","1","2022-04-01 08:04:32","c79472ad15d8b617a4d57d5bf56a810f","116.7.221.23","Mozilla/5.0 (Windows NT 10.0; Win64; x64) AppleWebKit/537.36 (KHTML, like Gecko) Chrome/100.0.4896.60 Safari/537.36","WebKit","Chrome","100.0.4896.60","Windows","10.0","null","null","","","
                        <div class=orange>
                        <div class=""centered"">
                            <p style=""font-size: 24px""><b>53%</b></p>
                        </div>","O_2_5_P",""
"","","","","","html-keyboard-response","184","512986","0.0-2.0-10.0-0.0-0.4","14","1","2022-04-01 08:04:32","c79472ad15d8b617a4d57d5bf56a810f","116.7.221.23","Mozilla/5.0 (Windows NT 10.0; Win64; x64) AppleWebKit/537.36 (KHTML, like Gecko) Chrome/100.0.4896.60 Safari/537.36","WebKit","Chrome","100.0.4896.60","Windows","10.0","null","null","","","<p style=""font-size:64px;"">+</p>","O_2_5_P",""
"","","","","","html-keyboard-response","185","514238","0.0-2.0-10.0-0.0-1.4","14","1","2022-04-01 08:04:32","c79472ad15d8b617a4d57d5bf56a810f","116.7.221.23","Mozilla/5.0 (Windows NT 10.0; Win64; x64) AppleWebKit/537.36 (KHTML, like Gecko) Chrome/100.0.4896.60 Safari/537.36","WebKit","Chrome","100.0.4896.60","Windows","10.0","null","null","","","
                        <div class=pink>
                        <div class=""centered"">
                            <p style=""font-size: 24px""><b>52%</b></p>
                        </div>","O_2_5_P",""
"","","","","","html-keyboard-response","186","514640","0.0-2.0-10.0-0.0-0.5","14","1","2022-04-01 08:04:32","c79472ad15d8b617a4d57d5bf56a810f","116.7.221.23","Mozilla/5.0 (Windows NT 10.0; Win64; x64) AppleWebKit/537.36 (KHTML, like Gecko) Chrome/100.0.4896.60 Safari/537.36","WebKit","Chrome","100.0.4896.60","Windows","10.0","null","null","","","<p style=""font-size:64px;"">+</p>","O_2_5_P",""
"","","","","","html-keyboard-response","187","515891","0.0-2.0-10.0-0.0-1.5","14","1","2022-04-01 08:04:32","c79472ad15d8b617a4d57d5bf56a810f","116.7.221.23","Mozilla/5.0 (Windows NT 10.0; Win64; x64) AppleWebKit/537.36 (KHTML, like Gecko) Chrome/100.0.4896.60 Safari/537.36","WebKit","Chrome","100.0.4896.60","Windows","10.0","null","null","","","
                        <div class=pink>
                        <div class=""centered"">
                            <p style=""font-size: 24px""><b>55%</b></p>
                        </div>","O_2_5_P",""
"","","","","","html-keyboard-response","188","516292","0.0-2.0-10.0-1.0-0.0","14","1","2022-04-01 08:04:32","c79472ad15d8b617a4d57d5bf56a810f","116.7.221.23","Mozilla/5.0 (Windows NT 10.0; Win64; x64) AppleWebKit/537.36 (KHTML, like Gecko) Chrome/100.0.4896.60 Safari/537.36","WebKit","Chrome","100.0.4896.60","Windows","10.0","null","null","","","<p style=""font-size:64px;"">+</p>","O_2_5_P",""
"","","","","","html-keyboard-response","189","517544","0.0-2.0-10.0-1.0-1.0","14","1","2022-04-01 08:04:32","c79472ad15d8b617a4d57d5bf56a810f","116.7.221.23","Mozilla/5.0 (Windows NT 10.0; Win64; x64) AppleWebKit/537.36 (KHTML, like Gecko) Chrome/100.0.4896.60 Safari/537.36","WebKit","Chrome","100.0.4896.60","Windows","10.0","null","null","","","
                        <div class=""pink"">
                        <div class=""centered"">
                            <p style=""font-size: 24px""><b>50%</b></p>
                        </div>","O_2_5_P",""
"","","","","","html-slider-response","190","519950","0.0-2.0-10.0-2.0","14","1","2022-04-01 08:04:32","c79472ad15d8b617a4d57d5bf56a810f","116.7.221.23","Mozilla/5.0 (Windows NT 10.0; Win64; x64) AppleWebKit/537.36 (KHTML, like Gecko) Chrome/100.0.4896.60 Safari/537.36","WebKit","Chrome","100.0.4896.60","Windows","10.0","2405","17","","","<div style=""width: 500px; height: 100px;""><p>Place your bid for more information.</p></div>","infoBid","39"
"","","","","","html-keyboard-response","191","520352","0.0-2.0-10.0-3.0-0.0","14","1","2022-04-01 08:04:32","c79472ad15d8b617a4d57d5bf56a810f","116.7.221.23","Mozilla/5.0 (Windows NT 10.0; Win64; x64) AppleWebKit/537.36 (KHTML, like Gecko) Chrome/100.0.4896.60 Safari/537.36","WebKit","Chrome","100.0.4896.60","Windows","10.0","null","null","","","<p style=""font-size:64px;"">+</p>","O_2_5_P",""
"","","","","","html-keyboard-response","192","521602","0.0-2.0-10.0-3.0-1.0","14","1","2022-04-01 08:04:32","c79472ad15d8b617a4d57d5bf56a810f","116.7.221.23","Mozilla/5.0 (Windows NT 10.0; Win64; x64) AppleWebKit/537.36 (KHTML, like Gecko) Chrome/100.0.4896.60 Safari/537.36","WebKit","Chrome","100.0.4896.60","Windows","10.0","null","null","","","<div class=pink>
                <div class=""centered"">
                    <p style=""font-size: 24px""><b>53%</b></p>
                </div>","O_2_5_P",""
"","","","","","html-keyboard-response","193","523369","0.0-2.0-10.0-4.0-0.0","14","1","2022-04-01 08:04:32","c79472ad15d8b617a4d57d5bf56a810f","116.7.221.23","Mozilla/5.0 (Windows NT 10.0; Win64; x64) AppleWebKit/537.36 (KHTML, like Gecko) Chrome/100.0.4896.60 Safari/537.36","WebKit","Chrome","100.0.4896.60","Windows","10.0","1765.4000000059605","j","","","
                      <div class=""row"">

                          <div class=""column"">
                              <div class=""orange""></div>
                              <div class=""leftChoiceText"">
