"success","timeout","failed_images","failed_audio","failed_video","trial_type","trial_index","time_elapsed","internal_node_id","run_id","condition","recorded_at","source_code_version","ip","user_agent","device","browser","browser_version","platform","platform_version","rt","response","question_order","view_history","stimulus","trial_name","slider_start"
"true","false","[]","[]","[]","preload","0","1615","0.0-0.0","20","1","2022-04-02 06:18:56","c79472ad15d8b617a4d57d5bf56a810f","47.52.56.197","Mozilla/5.0 (Macintosh; Intel Mac OS X 10_15_7) AppleWebKit/537.36 (KHTML, like Gecko) Chrome/100.0.4896.60 Safari/537.36","Macintosh","Chrome","100.0.4896.60","OS X","10_15_7","","","","","","",""
"","","","","","survey-multi-choice","1","5490","0.0-1.0-0.0","20","1","2022-04-02 06:18:56","c79472ad15d8b617a4d57d5bf56a810f","47.52.56.197","Mozilla/5.0 (Macintosh; Intel Mac OS X 10_15_7) AppleWebKit/537.36 (KHTML, like Gecko) Chrome/100.0.4896.60 Safari/537.36","Macintosh","Chrome","100.0.4896.60","OS X","10_15_7","3869.5999999996275","{""Gender"":""Male""}","[0]","","","",""
"","","","","","survey-text","2","8564","0.0-1.0-1.0","20","1","2022-04-02 06:18:56","c79472ad15d8b617a4d57d5bf56a810f","47.52.56.197","Mozilla/5.0 (Macintosh; Intel Mac OS X 10_15_7) AppleWebKit/537.36 (KHTML, like Gecko) Chrome/100.0.4896.60 Safari/537.36","Macintosh","Chrome","100.0.4896.60","OS X","10_15_7","3069.399999999907","{""Age"":""23""}","","","","",""
"","","","","","instructions","3","193305","0.0-1.0-2.0","20","1","2022-04-02 06:18:56","c79472ad15d8b617a4d57d5bf56a810f","47.52.56.197","Mozilla/5.0 (Macintosh; Intel Mac OS X 10_15_7) AppleWebKit/537.36 (KHTML, like Gecko) Chrome/100.0.4896.60 Safari/537.36","Macintosh","Chrome","100.0.4896.60","OS X","10_15_7","184645.6000000001","","","[{""page_index"":0,""viewing_time"":7470.300000000279},{""page_index"":1,""viewing_time"":12851.399999999907},{""page_index"":2,""viewing_time"":20556.100000000093},{""page_index"":3,""viewing_time"":8031.199999999721},{""page_index"":4,""viewing_time"":54304.5},{""page_index"":5,""viewing_time"":7879.800000000279},{""page_index"":6,""viewing_time"":7038.899999999907},{""page_index"":7,""viewing_time"":15559.799999999814},{""page_index"":8,""viewing_time"":6312.9000000003725},{""page_index"":9,""viewing_time"":18869.399999999907},{""page_index"":10,""viewing_time"":5065.399999999907},{""page_index"":11,""viewing_time"":7957.399999999907},{""page_index"":12,""viewing_time"":8766.899999999907},{""page_index"":13,""viewing_time"":3980.600000000093}]","","",""
"","","","","","html-keyboard-response","4","193711","0.0-2.0-0.0-0.0-0.0","20","1","2022-04-02 06:18:56","c79472ad15d8b617a4d57d5bf56a810f","47.52.56.197","Mozilla/5.0 (Macintosh; Intel Mac OS X 10_15_7) AppleWebKit/537.36 (KHTML, like Gecko) Chrome/100.0.4896.60 Safari/537.36","Macintosh","Chrome","100.0.4896.60","OS X","10_15_7","null","null","","","<p style=""font-size:64px;"">+</p>","O_2_6_P",""
"","","","","","html-keyboard-response","5","194967","0.0-2.0-0.0-0.0-1.0","20","1","2022-04-02 06:18:56","c79472ad15d8b617a4d57d5bf56a810f","47.52.56.197","Mozilla/5.0 (Macintosh; Intel Mac OS X 10_15_7) AppleWebKit/537.36 (KHTML, like Gecko) Chrome/100.0.4896.60 Safari/537.36","Macintosh","Chrome","100.0.4896.60","OS X","10_15_7","null","null","","","
                        <div class=pink>
                        <div class=""centered"">
                            <p style=""font-size: 24px""><b>53%</b></p>
                        </div>","O_2_6_P",""
"","","","","","html-keyboard-response","6","195374","0.0-2.0-0.0-0.0-0.1","20","1","2022-04-02 06:18:56","c79472ad15d8b617a4d57d5bf56a810f","47.52.56.197","Mozilla/5.0 (Macintosh; Intel Mac OS X 10_15_7) AppleWebKit/537.36 (KHTML, like Gecko) Chrome/100.0.4896.60 Safari/537.36","Macintosh","Chrome","100.0.4896.60","OS X","10_15_7","null","null","","","<p style=""font-size:64px;"">+</p>","O_2_6_P",""
"","","","","","html-keyboard-response","7","196628","0.0-2.0-0.0-0.0-1.1","20","1","2022-04-02 06:18:56","c79472ad15d8b617a4d57d5bf56a810f","47.52.56.197","Mozilla/5.0 (Macintosh; Intel Mac OS X 10_15_7) AppleWebKit/537.36 (KHTML, like Gecko) Chrome/100.0.4896.60 Safari/537.36","Macintosh","Chrome","100.0.4896.60","OS X","10_15_7","null","null","","","
                        <div class=pink>
                        <div class=""centered"">
                            <p style=""font-size: 24px""><b>52%</b></p>
                        </div>","O_2_6_P",""
"","","","","","html-keyboard-response","8","197034","0.0-2.0-0.0-0.0-0.2","20","1","2022-04-02 06:18:56","c79472ad15d8b617a4d57d5bf56a810f","47.52.56.197","Mozilla/5.0 (Macintosh; Intel Mac OS X 10_15_7) AppleWebKit/537.36 (KHTML, like Gecko) Chrome/100.0.4896.60 Safari/537.36","Macintosh","Chrome","100.0.4896.60","OS X","10_15_7","null","null","","","<p style=""font-size:64px;"">+</p>","O_2_6_P",""
"","","","","","html-keyboard-response","9","198288","0.0-2.0-0.0-0.0-1.2","20","1","2022-04-02 06:18:56","c79472ad15d8b617a4d57d5bf56a810f","47.52.56.197","Mozilla/5.0 (Macintosh; Intel Mac OS X 10_15_7) AppleWebKit/537.36 (KHTML, like Gecko) Chrome/100.0.4896.60 Safari/537.36","Macintosh","Chrome","100.0.4896.60","OS X","10_15_7","null","null","","","
                        <div class=orange>
                        <div class=""centered"">
                            <p style=""font-size: 24px""><b>51%</b></p>
                        </div>","O_2_6_P",""
"","","","","","html-keyboard-response","10","198694","0.0-2.0-0.0-0.0-0.3","20","1","2022-04-02 06:18:56","c79472ad15d8b617a4d57d5bf56a810f","47.52.56.197","Mozilla/5.0 (Macintosh; Intel Mac OS X 10_15_7) AppleWebKit/537.36 (KHTML, like Gecko) Chrome/100.0.4896.60 Safari/537.36","Macintosh","Chrome","100.0.4896.60","OS X","10_15_7","null","null","","","<p style=""font-size:64px;"">+</p>","O_2_6_P",""
"","","","","","html-keyboard-response","11","199948","0.0-2.0-0.0-0.0-1.3","20","1","2022-04-02 06:18:56","c79472ad15d8b617a4d57d5bf56a810f","47.52.56.197","Mozilla/5.0 (Macintosh; Intel Mac OS X 10_15_7) AppleWebKit/537.36 (KHTML, like Gecko) Chrome/100.0.4896.60 Safari/537.36","Macintosh","Chrome","100.0.4896.60","OS X","10_15_7","null","null","","","
                        <div class=orange>
                        <div class=""centered"">
                            <p style=""font-size: 24px""><b>55%</b></p>
                        </div>","O_2_6_P",""
"","","","","","html-keyboard-response","12","200355","0.0-2.0-0.0-0.0-0.4","20","1","2022-04-02 06:18:56","c79472ad15d8b617a4d57d5bf56a810f","47.52.56.197","Mozilla/5.0 (Macintosh; Intel Mac OS X 10_15_7) AppleWebKit/537.36 (KHTML, like Gecko) Chrome/100.0.4896.60 Safari/537.36","Macintosh","Chrome","100.0.4896.60","OS X","10_15_7","null","null","","","<p style=""font-size:64px;"">+</p>","O_2_6_P",""
"","","","","","html-keyboard-response","13","201608","0.0-2.0-0.0-0.0-1.4","20","1","2022-04-02 06:18:56","c79472ad15d8b617a4d57d5bf56a810f","47.52.56.197","Mozilla/5.0 (Macintosh; Intel Mac OS X 10_15_7) AppleWebKit/537.36 (KHTML, like Gecko) Chrome/100.0.4896.60 Safari/537.36","Macintosh","Chrome","100.0.4896.60","OS X","10_15_7","null","null","","","
                        <div class=orange>
                        <div class=""centered"">
                            <p style=""font-size: 24px""><b>55%</b></p>
                        </div>","O_2_6_P",""
"","","","","","html-keyboard-response","14","202015","0.0-2.0-0.0-0.0-0.5","20","1","2022-04-02 06:18:56","c79472ad15d8b617a4d57d5bf56a810f","47.52.56.197","Mozilla/5.0 (Macintosh; Intel Mac OS X 10_15_7) AppleWebKit/537.36 (KHTML, like Gecko) Chrome/100.0.4896.60 Safari/537.36","Macintosh","Chrome","100.0.4896.60","OS X","10_15_7","null","null","","","<p style=""font-size:64px;"">+</p>","O_2_6_P",""
"","","","","","html-keyboard-response","15","203269","0.0-2.0-0.0-0.0-1.5","20","1","2022-04-02 06:18:56","c79472ad15d8b617a4d57d5bf56a810f","47.52.56.197","Mozilla/5.0 (Macintosh; Intel Mac OS X 10_15_7) AppleWebKit/537.36 (KHTML, like Gecko) Chrome/100.0.4896.60 Safari/537.36","Macintosh","Chrome","100.0.4896.60","OS X","10_15_7","null","null","","","
                        <div class=pink>
                        <div class=""centered"">
                            <p style=""font-size: 24px""><b>54%</b></p>
                        </div>","O_2_6_P",""
"","","","","","html-keyboard-response","16","203675","0.0-2.0-0.0-1.0-0.0","20","1","2022-04-02 06:18:56","c79472ad15d8b617a4d57d5bf56a810f","47.52.56.197","Mozilla/5.0 (Macintosh; Intel Mac OS X 10_15_7) AppleWebKit/537.36 (KHTML, like Gecko) Chrome/100.0.4896.60 Safari/537.36","Macintosh","Chrome","100.0.4896.60","OS X","10_15_7","null","null","","","<p style=""font-size:64px;"">+</p>","O_2_6_P",""
"","","","","","html-keyboard-response","17","204929","0.0-2.0-0.0-1.0-1.0","20","1","2022-04-02 06:18:56","c79472ad15d8b617a4d57d5bf56a810f","47.52.56.197","Mozilla/5.0 (Macintosh; Intel Mac OS X 10_15_7) AppleWebKit/537.36 (KHTML, like Gecko) Chrome/100.0.4896.60 Safari/537.36","Macintosh","Chrome","100.0.4896.60","OS X","10_15_7","null","null","","","
                        <div class=""pink"">
                        <div class=""centered"">
                            <p style=""font-size: 24px""><b>50%</b></p>
                        </div>","O_2_6_P",""
"","","","","","html-slider-response","18","212014","0.0-2.0-0.0-2.0","20","1","2022-04-02 06:18:56","c79472ad15d8b617a4d57d5bf56a810f","47.52.56.197","Mozilla/5.0 (Macintosh; Intel Mac OS X 10_15_7) AppleWebKit/537.36 (KHTML, like Gecko) Chrome/100.0.4896.60 Safari/537.36","Macintosh","Chrome","100.0.4896.60","OS X","10_15_7","7082.5","7","","","<div style=""width: 500px; height: 100px;""><p>Place your bid for more information.</p></div>","infoBid","32"
"","","","","","html-keyboard-response","19","212417","0.0-2.0-0.0-3.0-0.0","20","1","2022-04-02 06:18:56","c79472ad15d8b617a4d57d5bf56a810f","47.52.56.197","Mozilla/5.0 (Macintosh; Intel Mac OS X 10_15_7) AppleWebKit/537.36 (KHTML, like Gecko) Chrome/100.0.4896.60 Safari/537.36","Macintosh","Chrome","100.0.4896.60","OS X","10_15_7","null","null","","","<p style=""font-size:64px;"">+</p>","O_2_6_P",""
"","","","","","html-keyboard-response","20","213671","0.0-2.0-0.0-3.0-1.0","20","1","2022-04-02 06:18:56","c79472ad15d8b617a4d57d5bf56a810f","47.52.56.197","Mozilla/5.0 (Macintosh; Intel Mac OS X 10_15_7) AppleWebKit/537.36 (KHTML, like Gecko) Chrome/100.0.4896.60 Safari/537.36","Macintosh","Chrome","100.0.4896.60","OS X","10_15_7","null","null","","","<div class=orange>
                <div class=""centered"">
                    <p style=""font-size: 24px""><b>53%</b></p>
                </div>","O_2_6_P",""
"","","","","","html-keyboard-response","21","218317","0.0-2.0-0.0-4.0-0.0","20","1","2022-04-02 06:18:56","c79472ad15d8b617a4d57d5bf56a810f","47.52.56.197","Mozilla/5.0 (Macintosh; Intel Mac OS X 10_15_7) AppleWebKit/537.36 (KHTML, like Gecko) Chrome/100.0.4896.60 Safari/537.36","Macintosh","Chrome","100.0.4896.60","OS X","10_15_7","4643.5","f","","","
                      <div class=""row"">

                          <div class=""column"">
                              <div class=""orange""></div>
                              <div class=""leftChoiceText"">
                                  <p style=""font-size: 32px""><b>F</b></p>
                              </div>
                          </div>

                          <div class=""column"">
                              <div class=""pink""></div>
                              <div class=""rightChoiceText"">
                                  <p style=""font-size: 32px""><b>J</b></p>
                              </div>
                          </div>

                      </div>

                      <div class=""centeredTop"">
                          Which colour do you<br>
                          predict will win?
                      </div>","O_2_6_P",""
"","","","","","html-keyboard-response","22","219819","0.0-2.0-0.0-4.0-1.0","20","1","2022-04-02 06:18:56","c79472ad15d8b617a4d57d5bf56a810f","47.52.56.197","Mozilla/5.0 (Macintosh; Intel Mac OS X 10_15_7) AppleWebKit/537.36 (KHTML, like Gecko) Chrome/100.0.4896.60 Safari/537.36","Macintosh","Chrome","100.0.4896.60","OS X","10_15_7","null","null","","","<p style=""font-size:64px;"">+</p>","O_2_6_P",""
"","","","","","html-keyboard-response","23","220225","0.0-2.0-1.0-0.0-0.0","20","1","2022-04-02 06:18:56","c79472ad15d8b617a4d57d5bf56a810f","47.52.56.197","Mozilla/5.0 (Macintosh; Intel Mac OS X 10_15_7) AppleWebKit/537.36 (KHTML, like Gecko) Chrome/100.0.4896.60 Safari/537.36","Macintosh","Chrome","100.0.4896.60","OS X","10_15_7","null","null","","","<p style=""font-size:64px;"">+</p>","P_2_6_P",""
"","","","","","html-keyboard-response","24","221479","0.0-2.0-1.0-0.0-1.0","20","1","2022-04-02 06:18:56","c79472ad15d8b617a4d57d5bf56a810f","47.52.56.197","Mozilla/5.0 (Macintosh; Intel Mac OS X 10_15_7) AppleWebKit/537.36 (KHTML, like Gecko) Chrome/100.0.4896.60 Safari/537.36","Macintosh","Chrome","100.0.4896.60","OS X","10_15_7","null","null","","","
                        <div class=orange>
                        <div class=""centered"">
                            <p style=""font-size: 24px""><b>53%</b></p>
                        </div>","P_2_6_P",""
"","","","","","html-keyboard-response","25","221886","0.0-2.0-1.0-0.0-0.1","20","1","2022-04-02 06:18:56","c79472ad15d8b617a4d57d5bf56a810f","47.52.56.197","Mozilla/5.0 (Macintosh; Intel Mac OS X 10_15_7) AppleWebKit/537.36 (KHTML, like Gecko) Chrome/100.0.4896.60 Safari/537.36","Macintosh","Chrome","100.0.4896.60","OS X","10_15_7","null","null","","","<p style=""font-size:64px;"">+</p>","P_2_6_P",""
"","","","","","html-keyboard-response","26","223139","0.0-2.0-1.0-0.0-1.1","20","1","2022-04-02 06:18:56","c79472ad15d8b617a4d57d5bf56a810f","47.52.56.197","Mozilla/5.0 (Macintosh; Intel Mac OS X 10_15_7) AppleWebKit/537.36 (KHTML, like Gecko) Chrome/100.0.4896.60 Safari/537.36","Macintosh","Chrome","100.0.4896.60","OS X","10_15_7","null","null","","","
                        <div class=pink>
                        <div class=""centered"">
                            <p style=""font-size: 24px""><b>51%</b></p>
                        </div>","P_2_6_P",""
"","","","","","html-keyboard-response","27","223546","0.0-2.0-1.0-0.0-0.2","20","1","2022-04-02 06:18:56","c79472ad15d8b617a4d57d5bf56a810f","47.52.56.197","Mozilla/5.0 (Macintosh; Intel Mac OS X 10_15_7) AppleWebKit/537.36 (KHTML, like Gecko) Chrome/100.0.4896.60 Safari/537.36","Macintosh","Chrome","100.0.4896.60","OS X","10_15_7","null","null","","","<p style=""font-size:64px;"">+</p>","P_2_6_P",""
"","","","","","html-keyboard-response","28","224800","0.0-2.0-1.0-0.0-1.2","20","1","2022-04-02 06:18:56","c79472ad15d8b617a4d57d5bf56a810f","47.52.56.197","Mozilla/5.0 (Macintosh; Intel Mac OS X 10_15_7) AppleWebKit/537.36 (KHTML, like Gecko) Chrome/100.0.4896.60 Safari/537.36","Macintosh","Chrome","100.0.4896.60","OS X","10_15_7","null","null","","","
                        <div class=orange>
                        <div class=""centered"">
                            <p style=""font-size: 24px""><b>52%</b></p>
                        </div>","P_2_6_P",""
"","","","","","html-keyboard-response","29","225206","0.0-2.0-1.0-0.0-0.3","20","1","2022-04-02 06:18:56","c79472ad15d8b617a4d57d5bf56a810f","47.52.56.197","Mozilla/5.0 (Macintosh; Intel Mac OS X 10_15_7) AppleWebKit/537.36 (KHTML, like Gecko) Chrome/100.0.4896.60 Safari/537.36","Macintosh","Chrome","100.0.4896.60","OS X","10_15_7","null","null","","","<p style=""font-size:64px;"">+</p>","P_2_6_P",""
"","","","","","html-keyboard-response","30","226460","0.0-2.0-1.0-0.0-1.3","20","1","2022-04-02 06:18:56","c79472ad15d8b617a4d57d5bf56a810f","47.52.56.197","Mozilla/5.0 (Macintosh; Intel Mac OS X 10_15_7) AppleWebKit/537.36 (KHTML, like Gecko) Chrome/100.0.4896.60 Safari/537.36","Macintosh","Chrome","100.0.4896.60","OS X","10_15_7","null","null","","","
                        <div class=pink>
                        <div class=""centered"">
                            <p style=""font-size: 24px""><b>55%</b></p>
                        </div>","P_2_6_P",""
"","","","","","html-keyboard-response","31","226866","0.0-2.0-1.0-0.0-0.4","20","1","2022-04-02 06:18:56","c79472ad15d8b617a4d57d5bf56a810f","47.52.56.197","Mozilla/5.0 (Macintosh; Intel Mac OS X 10_15_7) AppleWebKit/537.36 (KHTML, like Gecko) Chrome/100.0.4896.60 Safari/537.36","Macintosh","Chrome","100.0.4896.60","OS X","10_15_7","null","null","","","<p style=""font-size:64px;"">+</p>","P_2_6_P",""
"","","","","","html-keyboard-response","32","228120","0.0-2.0-1.0-0.0-1.4","20","1","2022-04-02 06:18:56","c79472ad15d8b617a4d57d5bf56a810f","47.52.56.197","Mozilla/5.0 (Macintosh; Intel Mac OS X 10_15_7) AppleWebKit/537.36 (KHTML, like Gecko) Chrome/100.0.4896.60 Safari/537.36","Macintosh","Chrome","100.0.4896.60","OS X","10_15_7","null","null","","","
                        <div class=orange>
                        <div class=""centered"">
                            <p style=""font-size: 24px""><b>54%</b></p>
                        </div>","P_2_6_P",""
"","","","","","html-keyboard-response","33","228524","0.0-2.0-1.0-0.0-0.5","20","1","2022-04-02 06:18:56","c79472ad15d8b617a4d57d5bf56a810f","47.52.56.197","Mozilla/5.0 (Macintosh; Intel Mac OS X 10_15_7) AppleWebKit/537.36 (KHTML, like Gecko) Chrome/100.0.4896.60 Safari/537.36","Macintosh","Chrome","100.0.4896.60","OS X","10_15_7","null","null","","","<p style=""font-size:64px;"">+</p>","P_2_6_P",""
"","","","","","html-keyboard-response","34","229781","0.0-2.0-1.0-0.0-1.5","20","1","2022-04-02 06:18:56","c79472ad15d8b617a4d57d5bf56a810f","47.52.56.197","Mozilla/5.0 (Macintosh; Intel Mac OS X 10_15_7) AppleWebKit/537.36 (KHTML, like Gecko) Chrome/100.0.4896.60 Safari/537.36","Macintosh","Chrome","100.0.4896.60","OS X","10_15_7","null","null","","","
                        <div class=pink>
                        <div class=""centered"">
                            <p style=""font-size: 24px""><b>55%</b></p>
                        </div>","P_2_6_P",""
"","","","","","html-keyboard-response","35","230187","0.0-2.0-1.0-1.0-0.0","20","1","2022-04-02 06:18:56","c79472ad15d8b617a4d57d5bf56a810f","47.52.56.197","Mozilla/5.0 (Macintosh; Intel Mac OS X 10_15_7) AppleWebKit/537.36 (KHTML, like Gecko) Chrome/100.0.4896.60 Safari/537.36","Macintosh","Chrome","100.0.4896.60","OS X","10_15_7","null","null","","","<p style=""font-size:64px;"">+</p>","P_2_6_P",""
"","","","","","html-keyboard-response","36","231441","0.0-2.0-1.0-1.0-1.0","20","1","2022-04-02 06:18:56","c79472ad15d8b617a4d57d5bf56a810f","47.52.56.197","Mozilla/5.0 (Macintosh; Intel Mac OS X 10_15_7) AppleWebKit/537.36 (KHTML, like Gecko) Chrome/100.0.4896.60 Safari/537.36","Macintosh","Chrome","100.0.4896.60","OS X","10_15_7","null","null","","","
                        <div class=""pink"">
                        <div class=""centered"">
                            <p style=""font-size: 24px""><b>50%</b></p>
                        </div>","P_2_6_P",""
"","","","","","html-slider-response","37","235912","0.0-2.0-1.0-2.0","20","1","2022-04-02 06:18:56","c79472ad15d8b617a4d57d5bf56a810f","47.52.56.197","Mozilla/5.0 (Macintosh; Intel Mac OS X 10_15_7) AppleWebKit/537.36 (KHTML, like Gecko) Chrome/100.0.4896.60 Safari/537.36","Macintosh","Chrome","100.0.4896.60","OS X","10_15_7","4469.5","0","","","<div style=""width: 500px; height: 100px;""><p>Place your bid for more information.</p></div>","infoBid","42"
"","","","","","html-keyboard-response","38","236317","0.0-2.0-1.0-3.0-0.0","20","1","2022-04-02 06:18:56","c79472ad15d8b617a4d57d5bf56a810f","47.52.56.197","Mozilla/5.0 (Macintosh; Intel Mac OS X 10_15_7) AppleWebKit/537.36 (KHTML, like Gecko) Chrome/100.0.4896.60 Safari/537.36","Macintosh","Chrome","100.0.4896.60","OS X","10_15_7","null","null","","","<p style=""font-size:64px;"">+</p>","P_2_6_P",""
"","","","","","html-keyboard-response","39","237571","0.0-2.0-1.0-3.0-1.0","20","1","2022-04-02 06:18:56","c79472ad15d8b617a4d57d5bf56a810f","47.52.56.197","Mozilla/5.0 (Macintosh; Intel Mac OS X 10_15_7) AppleWebKit/537.36 (KHTML, like Gecko) Chrome/100.0.4896.60 Safari/537.36","Macintosh","Chrome","100.0.4896.60","OS X","10_15_7","null","null","","","<div class=""grey"">
                <div class=""centered"">
                    <p style=""font-size: 24px""><b>???</b></p>
                </div>","P_2_6_P",""
"","","","","","html-keyboard-response","40","240929","0.0-2.0-1.0-4.0-0.0","20","1","2022-04-02 06:18:56","c79472ad15d8b617a4d57d5bf56a810f","47.52.56.197","Mozilla/5.0 (Macintosh; Intel Mac OS X 10_15_7) AppleWebKit/537.36 (KHTML, like Gecko) Chrome/100.0.4896.60 Safari/537.36","Macintosh","Chrome","100.0.4896.60","OS X","10_15_7","3354.5999999996275","j","","","
                      <div class=""row"">

                          <div class=""column"">
                              <div class=""orange""></div>
                              <div class=""leftChoiceText"">
                                  <p style=""font-size: 32px""><b>F</b></p>
                              </div>
                          </div>

                          <div class=""column"">
                              <div class=""pink""></div>
                              <div class=""rightChoiceText"">
                                  <p style=""font-size: 32px""><b>J</b></p>
                              </div>
                          </div>

                      </div>

                      <div class=""centeredTop"">
                          Which colour do you<br>
                          predict will win?
                      </div>","P_2_6_P",""
"","","","","","html-keyboard-response","41","242436","0.0-2.0-1.0-4.0-1.0","20","1","2022-04-02 06:18:56","c79472ad15d8b617a4d57d5bf56a810f","47.52.56.197","Mozilla/5.0 (Macintosh; Intel Mac OS X 10_15_7) AppleWebKit/537.36 (KHTML, like Gecko) Chrome/100.0.4896.60 Safari/537.36","Macintosh","Chrome","100.0.4896.60","OS X","10_15_7","null","null","","","<p style=""font-size:64px;"">+</p>","P_2_6_P",""
"","","","","","html-keyboard-response","42","242842","0.0-2.0-2.0-0.0-0.0","20","1","2022-04-02 06:18:56","c79472ad15d8b617a4d57d5bf56a810f","47.52.56.197","Mozilla/5.0 (Macintosh; Intel Mac OS X 10_15_7) AppleWebKit/537.36 (KHTML, like Gecko) Chrome/100.0.4896.60 Safari/537.36","Macintosh","Chrome","100.0.4896.60","OS X","10_15_7","null","null","","","<p style=""font-size:64px;"">+</p>","O_4_1_O",""
"","","","","","html-keyboard-response","43","244096","0.0-2.0-2.0-0.0-1.0","20","1","2022-04-02 06:18:56","c79472ad15d8b617a4d57d5bf56a810f","47.52.56.197","Mozilla/5.0 (Macintosh; Intel Mac OS X 10_15_7) AppleWebKit/537.36 (KHTML, like Gecko) Chrome/100.0.4896.60 Safari/537.36","Macintosh","Chrome","100.0.4896.60","OS X","10_15_7","null","null","","","
                        <div class=pink>
                        <div class=""centered"">
                            <p style=""font-size: 24px""><b>55%</b></p>
                        </div>","O_4_1_O",""
"","","","","","html-keyboard-response","44","244502","0.0-2.0-2.0-0.0-0.1","20","1","2022-04-02 06:18:56","c79472ad15d8b617a4d57d5bf56a810f","47.52.56.197","Mozilla/5.0 (Macintosh; Intel Mac OS X 10_15_7) AppleWebKit/537.36 (KHTML, like Gecko) Chrome/100.0.4896.60 Safari/537.36","Macintosh","Chrome","100.0.4896.60","OS X","10_15_7","null","null","","","<p style=""font-size:64px;"">+</p>","O_4_1_O",""
"","","","","","html-keyboard-response","45","245756","0.0-2.0-2.0-0.0-1.1","20","1","2022-04-02 06:18:56","c79472ad15d8b617a4d57d5bf56a810f","47.52.56.197","Mozilla/5.0 (Macintosh; Intel Mac OS X 10_15_7) AppleWebKit/537.36 (KHTML, like Gecko) Chrome/100.0.4896.60 Safari/537.36","Macintosh","Chrome","100.0.4896.60","OS X","10_15_7","null","null","","","
                        <div class=orange>
                        <div class=""centered"">
                            <p style=""font-size: 24px""><b>54%</b></p>
                        </div>","O_4_1_O",""
"","","","","","html-keyboard-response","46","246163","0.0-2.0-2.0-0.0-0.2","20","1","2022-04-02 06:18:56","c79472ad15d8b617a4d57d5bf56a810f","47.52.56.197","Mozilla/5.0 (Macintosh; Intel Mac OS X 10_15_7) AppleWebKit/537.36 (KHTML, like Gecko) Chrome/100.0.4896.60 Safari/537.36","Macintosh","Chrome","100.0.4896.60","OS X","10_15_7","null","null","","","<p style=""font-size:64px;"">+</p>","O_4_1_O",""
"","","","","","html-keyboard-response","47","247417","0.0-2.0-2.0-0.0-1.2","20","1","2022-04-02 06:18:56","c79472ad15d8b617a4d57d5bf56a810f","47.52.56.197","Mozilla/5.0 (Macintosh; Intel Mac OS X 10_15_7) AppleWebKit/537.36 (KHTML, like Gecko) Chrome/100.0.4896.60 Safari/537.36","Macintosh","Chrome","100.0.4896.60","OS X","10_15_7","null","null","","","
                        <div class=orange>
                        <div class=""centered"">
                            <p style=""font-size: 24px""><b>53%</b></p>
                        </div>","O_4_1_O",""
"","","","","","html-keyboard-response","48","247823","0.0-2.0-2.0-0.0-0.3","20","1","2022-04-02 06:18:56","c79472ad15d8b617a4d57d5bf56a810f","47.52.56.197","Mozilla/5.0 (Macintosh; Intel Mac OS X 10_15_7) AppleWebKit/537.36 (KHTML, like Gecko) Chrome/100.0.4896.60 Safari/537.36","Macintosh","Chrome","100.0.4896.60","OS X","10_15_7","null","null","","","<p style=""font-size:64px;"">+</p>","O_4_1_O",""
"","","","","","html-keyboard-response","49","249077","0.0-2.0-2.0-0.0-1.3","20","1","2022-04-02 06:18:56","c79472ad15d8b617a4d57d5bf56a810f","47.52.56.197","Mozilla/5.0 (Macintosh; Intel Mac OS X 10_15_7) AppleWebKit/537.36 (KHTML, like Gecko) Chrome/100.0.4896.60 Safari/537.36","Macintosh","Chrome","100.0.4896.60","OS X","10_15_7","null","null","","","
                        <div class=pink>
                        <div class=""centered"">
                            <p style=""font-size: 24px""><b>51%</b></p>
                        </div>","O_4_1_O",""
"","","","","","html-keyboard-response","50","249483","0.0-2.0-2.0-0.0-0.4","20","1","2022-04-02 06:18:56","c79472ad15d8b617a4d57d5bf56a810f","47.52.56.197","Mozilla/5.0 (Macintosh; Intel Mac OS X 10_15_7) AppleWebKit/537.36 (KHTML, like Gecko) Chrome/100.0.4896.60 Safari/537.36","Macintosh","Chrome","100.0.4896.60","OS X","10_15_7","null","null","","","<p style=""font-size:64px;"">+</p>","O_4_1_O",""
"","","","","","html-keyboard-response","51","250737","0.0-2.0-2.0-0.0-1.4","20","1","2022-04-02 06:18:56","c79472ad15d8b617a4d57d5bf56a810f","47.52.56.197","Mozilla/5.0 (Macintosh; Intel Mac OS X 10_15_7) AppleWebKit/537.36 (KHTML, like Gecko) Chrome/100.0.4896.60 Safari/537.36","Macintosh","Chrome","100.0.4896.60","OS X","10_15_7","null","null","","","
                        <div class=pink>
                        <div class=""centered"">
                            <p style=""font-size: 24px""><b>51%</b></p>
                        </div>","O_4_1_O",""
"","","","","","html-keyboard-response","52","251139","0.0-2.0-2.0-0.0-0.5","20","1","2022-04-02 06:18:56","c79472ad15d8b617a4d57d5bf56a810f","47.52.56.197","Mozilla/5.0 (Macintosh; Intel Mac OS X 10_15_7) AppleWebKit/537.36 (KHTML, like Gecko) Chrome/100.0.4896.60 Safari/537.36","Macintosh","Chrome","100.0.4896.60","OS X","10_15_7","null","null","","","<p style=""font-size:64px;"">+</p>","O_4_1_O",""
"","","","","","html-keyboard-response","53","252391","0.0-2.0-2.0-0.0-1.5","20","1","2022-04-02 06:18:56","c79472ad15d8b617a4d57d5bf56a810f","47.52.56.197","Mozilla/5.0 (Macintosh; Intel Mac OS X 10_15_7) AppleWebKit/537.36 (KHTML, like Gecko) Chrome/100.0.4896.60 Safari/537.36","Macintosh","Chrome","100.0.4896.60","OS X","10_15_7","null","null","","","
                        <div class=orange>
                        <div class=""centered"">
                            <p style=""font-size: 24px""><b>54%</b></p>
                        </div>","O_4_1_O",""
"","","","","","html-keyboard-response","54","252798","0.0-2.0-2.0-1.0-0.0","20","1","2022-04-02 06:18:56","c79472ad15d8b617a4d57d5bf56a810f","47.52.56.197","Mozilla/5.0 (Macintosh; Intel Mac OS X 10_15_7) AppleWebKit/537.36 (KHTML, like Gecko) Chrome/100.0.4896.60 Safari/537.36","Macintosh","Chrome","100.0.4896.60","OS X","10_15_7","null","null","","","<p style=""font-size:64px;"">+</p>","O_4_1_O",""
"","","","","","html-keyboard-response","55","254052","0.0-2.0-2.0-1.0-1.0","20","1","2022-04-02 06:18:56","c79472ad15d8b617a4d57d5bf56a810f","47.52.56.197","Mozilla/5.0 (Macintosh; Intel Mac OS X 10_15_7) AppleWebKit/537.36 (KHTML, like Gecko) Chrome/100.0.4896.60 Safari/537.36","Macintosh","Chrome","100.0.4896.60","OS X","10_15_7","null","null","","","
                        <div class=""orange"">
                        <div class=""centered"">
                            <p style=""font-size: 24px""><b>50%</b></p>
                        </div>","O_4_1_O",""
"","","","","","html-slider-response","56","256875","0.0-2.0-2.0-2.0","20","1","2022-04-02 06:18:56","c79472ad15d8b617a4d57d5bf56a810f","47.52.56.197","Mozilla/5.0 (Macintosh; Intel Mac OS X 10_15_7) AppleWebKit/537.36 (KHTML, like Gecko) Chrome/100.0.4896.60 Safari/537.36","Macintosh","Chrome","100.0.4896.60","OS X","10_15_7","2820.899999999907","17","","","<div style=""width: 500px; height: 100px;""><p>Place your bid for more information.</p></div>","infoBid","12"
"","","","","","html-keyboard-response","57","257279","0.0-2.0-2.0-3.0-0.0","20","1","2022-04-02 06:18:56","c79472ad15d8b617a4d57d5bf56a810f","47.52.56.197","Mozilla/5.0 (Macintosh; Intel Mac OS X 10_15_7) AppleWebKit/537.36 (KHTML, like Gecko) Chrome/100.0.4896.60 Safari/537.36","Macintosh","Chrome","100.0.4896.60","OS X","10_15_7","null","null","","","<p style=""font-size:64px;"">+</p>","O_4_1_O",""
"","","","","","html-keyboard-response","58","258533","0.0-2.0-2.0-3.0-1.0","20","1","2022-04-02 06:18:56","c79472ad15d8b617a4d57d5bf56a810f","47.52.56.197","Mozilla/5.0 (Macintosh; Intel Mac OS X 10_15_7) AppleWebKit/537.36 (KHTML, like Gecko) Chrome/100.0.4896.60 Safari/537.36","Macintosh","Chrome","100.0.4896.60","OS X","10_15_7","null","null","","","<div class=orange>
                <div class=""centered"">
                    <p style=""font-size: 24px""><b>53%</b></p>
                </div>","O_4_1_O",""
"","","","","","html-keyboard-response","59","259215","0.0-2.0-2.0-4.0-0.0","20","1","2022-04-02 06:18:56","c79472ad15d8b617a4d57d5bf56a810f","47.52.56.197","Mozilla/5.0 (Macintosh; Intel Mac OS X 10_15_7) AppleWebKit/537.36 (KHTML, like Gecko) Chrome/100.0.4896.60 Safari/537.36","Macintosh","Chrome","100.0.4896.60","OS X","10_15_7","680.1000000000931","f","","","
                      <div class=""row"">

                          <div class=""column"">
                              <div class=""orange""></div>
                              <div class=""leftChoiceText"">
                                  <p style=""font-size: 32px""><b>F</b></p>
                              </div>
                          </div>

                          <div class=""column"">
                              <div class=""pink""></div>
                              <div class=""rightChoiceText"">
                                  <p style=""font-size: 32px""><b>J</b></p>
                              </div>
                          </div>

                      </div>

                      <div class=""centeredTop"">
                          Which colour do you<br>
                          predict will win?
                      </div>","O_4_1_O",""
"","","","","","html-keyboard-response","60","260722","0.0-2.0-2.0-4.0-1.0","20","1","2022-04-02 06:18:56","c79472ad15d8b617a4d57d5bf56a810f","47.52.56.197","Mozilla/5.0 (Macintosh; Intel Mac OS X 10_15_7) AppleWebKit/537.36 (KHTML, like Gecko) Chrome/100.0.4896.60 Safari/537.36","Macintosh","Chrome","100.0.4896.60","OS X","10_15_7","null","null","","","<p style=""font-size:64px;"">+</p>","O_4_1_O",""
"","","","","","html-keyboard-response","61","261123","0.0-2.0-3.0-0.0-0.0","20","1","2022-04-02 06:18:56","c79472ad15d8b617a4d57d5bf56a810f","47.52.56.197","Mozilla/5.0 (Macintosh; Intel Mac OS X 10_15_7) AppleWebKit/537.36 (KHTML, like Gecko) Chrome/100.0.4896.60 Safari/537.36","Macintosh","Chrome","100.0.4896.60","OS X","10_15_7","null","null","","","<p style=""font-size:64px;"">+</p>","O_6_4_O",""
"","","","","","html-keyboard-response","62","262378","0.0-2.0-3.0-0.0-1.0","20","1","2022-04-02 06:18:56","c79472ad15d8b617a4d57d5bf56a810f","47.52.56.197","Mozilla/5.0 (Macintosh; Intel Mac OS X 10_15_7) AppleWebKit/537.36 (KHTML, like Gecko) Chrome/100.0.4896.60 Safari/537.36","Macintosh","Chrome","100.0.4896.60","OS X","10_15_7","null","null","","","
                        <div class=orange>
                        <div class=""centered"">
                            <p style=""font-size: 24px""><b>54%</b></p>
                        </div>","O_6_4_O",""
"","","","","","html-keyboard-response","63","262783","0.0-2.0-3.0-0.0-0.1","20","1","2022-04-02 06:18:56","c79472ad15d8b617a4d57d5bf56a810f","47.52.56.197","Mozilla/5.0 (Macintosh; Intel Mac OS X 10_15_7) AppleWebKit/537.36 (KHTML, like Gecko) Chrome/100.0.4896.60 Safari/537.36","Macintosh","Chrome","100.0.4896.60","OS X","10_15_7","null","null","","","<p style=""font-size:64px;"">+</p>","O_6_4_O",""
"","","","","","html-keyboard-response","64","264036","0.0-2.0-3.0-0.0-1.1","20","1","2022-04-02 06:18:56","c79472ad15d8b617a4d57d5bf56a810f","47.52.56.197","Mozilla/5.0 (Macintosh; Intel Mac OS X 10_15_7) AppleWebKit/537.36 (KHTML, like Gecko) Chrome/100.0.4896.60 Safari/537.36","Macintosh","Chrome","100.0.4896.60","OS X","10_15_7","null","null","","","
                        <div class=pink>
                        <div class=""centered"">
                            <p style=""font-size: 24px""><b>53%</b></p>
                        </div>","O_6_4_O",""
"","","","","","html-keyboard-response","65","264443","0.0-2.0-3.0-0.0-0.2","20","1","2022-04-02 06:18:56","c79472ad15d8b617a4d57d5bf56a810f","47.52.56.197","Mozilla/5.0 (Macintosh; Intel Mac OS X 10_15_7) AppleWebKit/537.36 (KHTML, like Gecko) Chrome/100.0.4896.60 Safari/537.36","Macintosh","Chrome","100.0.4896.60","OS X","10_15_7","null","null","","","<p style=""font-size:64px;"">+</p>","O_6_4_O",""
"","","","","","html-keyboard-response","66","265697","0.0-2.0-3.0-0.0-1.2","20","1","2022-04-02 06:18:56","c79472ad15d8b617a4d57d5bf56a810f","47.52.56.197","Mozilla/5.0 (Macintosh; Intel Mac OS X 10_15_7) AppleWebKit/537.36 (KHTML, like Gecko) Chrome/100.0.4896.60 Safari/537.36","Macintosh","Chrome","100.0.4896.60","OS X","10_15_7","null","null","","","
                        <div class=pink>
                        <div class=""centered"">
                            <p style=""font-size: 24px""><b>52%</b></p>
                        </div>","O_6_4_O",""
"","","","","","html-keyboard-response","67","266103","0.0-2.0-3.0-0.0-0.3","20","1","2022-04-02 06:18:56","c79472ad15d8b617a4d57d5bf56a810f","47.52.56.197","Mozilla/5.0 (Macintosh; Intel Mac OS X 10_15_7) AppleWebKit/537.36 (KHTML, like Gecko) Chrome/100.0.4896.60 Safari/537.36","Macintosh","Chrome","100.0.4896.60","OS X","10_15_7","null","null","","","<p style=""font-size:64px;"">+</p>","O_6_4_O",""
"","","","","","html-keyboard-response","68","267356","0.0-2.0-3.0-0.0-1.3","20","1","2022-04-02 06:18:56","c79472ad15d8b617a4d57d5bf56a810f","47.52.56.197","Mozilla/5.0 (Macintosh; Intel Mac OS X 10_15_7) AppleWebKit/537.36 (KHTML, like Gecko) Chrome/100.0.4896.60 Safari/537.36","Macintosh","Chrome","100.0.4896.60","OS X","10_15_7","null","null","","","
                        <div class=orange>
                        <div class=""centered"">
                            <p style=""font-size: 24px""><b>55%</b></p>
                        </div>","O_6_4_O",""
"","","","","","html-keyboard-response","69","267760","0.0-2.0-3.0-0.0-0.4","20","1","2022-04-02 06:18:56","c79472ad15d8b617a4d57d5bf56a810f","47.52.56.197","Mozilla/5.0 (Macintosh; Intel Mac OS X 10_15_7) AppleWebKit/537.36 (KHTML, like Gecko) Chrome/100.0.4896.60 Safari/537.36","Macintosh","Chrome","100.0.4896.60","OS X","10_15_7","null","null","","","<p style=""font-size:64px;"">+</p>","O_6_4_O",""
"","","","","","html-keyboard-response","70","269012","0.0-2.0-3.0-0.0-1.4","20","1","2022-04-02 06:18:56","c79472ad15d8b617a4d57d5bf56a810f","47.52.56.197","Mozilla/5.0 (Macintosh; Intel Mac OS X 10_15_7) AppleWebKit/537.36 (KHTML, like Gecko) Chrome/100.0.4896.60 Safari/537.36","Macintosh","Chrome","100.0.4896.60","OS X","10_15_7","null","null","","","
                        <div class=pink>
                        <div class=""centered"">
                            <p style=""font-size: 24px""><b>52%</b></p>
                        </div>","O_6_4_O",""
"","","","","","html-keyboard-response","71","269414","0.0-2.0-3.0-0.0-0.5","20","1","2022-04-02 06:18:56","c79472ad15d8b617a4d57d5bf56a810f","47.52.56.197","Mozilla/5.0 (Macintosh; Intel Mac OS X 10_15_7) AppleWebKit/537.36 (KHTML, like Gecko) Chrome/100.0.4896.60 Safari/537.36","Macintosh","Chrome","100.0.4896.60","OS X","10_15_7","null","null","","","<p style=""font-size:64px;"">+</p>","O_6_4_O",""
"","","","","","html-keyboard-response","72","270666","0.0-2.0-3.0-0.0-1.5","20","1","2022-04-02 06:18:56","c79472ad15d8b617a4d57d5bf56a810f","47.52.56.197","Mozilla/5.0 (Macintosh; Intel Mac OS X 10_15_7) AppleWebKit/537.36 (KHTML, like Gecko) Chrome/100.0.4896.60 Safari/537.36","Macintosh","Chrome","100.0.4896.60","OS X","10_15_7","null","null","","","
                        <div class=orange>
                        <div class=""centered"">
                            <p style=""font-size: 24px""><b>54%</b></p>
                        </div>","O_6_4_O",""
"","","","","","html-keyboard-response","73","271072","0.0-2.0-3.0-1.0-0.0","20","1","2022-04-02 06:18:56","c79472ad15d8b617a4d57d5bf56a810f","47.52.56.197","Mozilla/5.0 (Macintosh; Intel Mac OS X 10_15_7) AppleWebKit/537.36 (KHTML, like Gecko) Chrome/100.0.4896.60 Safari/537.36","Macintosh","Chrome","100.0.4896.60","OS X","10_15_7","null","null","","","<p style=""font-size:64px;"">+</p>","O_6_4_O",""
"","","","","","html-keyboard-response","74","272326","0.0-2.0-3.0-1.0-1.0","20","1","2022-04-02 06:18:56","c79472ad15d8b617a4d57d5bf56a810f","47.52.56.197","Mozilla/5.0 (Macintosh; Intel Mac OS X 10_15_7) AppleWebKit/537.36 (KHTML, like Gecko) Chrome/100.0.4896.60 Safari/537.36","Macintosh","Chrome","100.0.4896.60","OS X","10_15_7","null","null","","","
                        <div class=""orange"">
                        <div class=""centered"">
                            <p style=""font-size: 24px""><b>50%</b></p>
                        </div>","O_6_4_O",""
"","","","","","html-slider-response","75","274537","0.0-2.0-3.0-2.0","20","1","2022-04-02 06:18:56","c79472ad15d8b617a4d57d5bf56a810f","47.52.56.197","Mozilla/5.0 (Macintosh; Intel Mac OS X 10_15_7) AppleWebKit/537.36 (KHTML, like Gecko) Chrome/100.0.4896.60 Safari/537.36","Macintosh","Chrome","100.0.4896.60","OS X","10_15_7","2208.600000000093","0","","","<div style=""width: 500px; height: 100px;""><p>Place your bid for more information.</p></div>","infoBid","46"
"","","","","","html-keyboard-response","76","274938","0.0-2.0-3.0-3.0-0.0","20","1","2022-04-02 06:18:56","c79472ad15d8b617a4d57d5bf56a810f","47.52.56.197","Mozilla/5.0 (Macintosh; Intel Mac OS X 10_15_7) AppleWebKit/537.36 (KHTML, like Gecko) Chrome/100.0.4896.60 Safari/537.36","Macintosh","Chrome","100.0.4896.60","OS X","10_15_7","null","null","","","<p style=""font-size:64px;"">+</p>","O_6_4_O",""
"","","","","","html-keyboard-response","77","276192","0.0-2.0-3.0-3.0-1.0","20","1","2022-04-02 06:18:56","c79472ad15d8b617a4d57d5bf56a810f","47.52.56.197","Mozilla/5.0 (Macintosh; Intel Mac OS X 10_15_7) AppleWebKit/537.36 (KHTML, like Gecko) Chrome/100.0.4896.60 Safari/537.36","Macintosh","Chrome","100.0.4896.60","OS X","10_15_7","null","null","","","<div class=""grey"">
                <div class=""centered"">
                    <p style=""font-size: 24px""><b>???</b></p>
                </div>","O_6_4_O",""
"","","","","","html-keyboard-response","78","276756","0.0-2.0-3.0-4.0-0.0","20","1","2022-04-02 06:18:56","c79472ad15d8b617a4d57d5bf56a810f","47.52.56.197","Mozilla/5.0 (Macintosh; Intel Mac OS X 10_15_7) AppleWebKit/537.36 (KHTML, like Gecko) Chrome/100.0.4896.60 Safari/537.36","Macintosh","Chrome","100.0.4896.60","OS X","10_15_7","562.2000000001863","f","","","
                      <div class=""row"">

                          <div class=""column"">
                              <div class=""orange""></div>
                              <div class=""leftChoiceText"">
                                  <p style=""font-size: 32px""><b>F</b></p>
                              </div>
                          </div>

                          <div class=""column"">
                              <div class=""pink""></div>
                              <div class=""rightChoiceText"">
                                  <p style=""font-size: 32px""><b>J</b></p>
                              </div>
                          </div>

                      </div>

                      <div class=""centeredTop"">
                          Which colour do you<br>
                          predict will win?
                      </div>","O_6_4_O",""
"","","","","","html-keyboard-response","79","278259","0.0-2.0-3.0-4.0-1.0","20","1","2022-04-02 06:18:56","c79472ad15d8b617a4d57d5bf56a810f","47.52.56.197","Mozilla/5.0 (Macintosh; Intel Mac OS X 10_15_7) AppleWebKit/537.36 (KHTML, like Gecko) Chrome/100.0.4896.60 Safari/537.36","Macintosh","Chrome","100.0.4896.60","OS X","10_15_7","null","null","","","<p style=""font-size:64px;"">+</p>","O_6_4_O",""
"","","","","","html-keyboard-response","80","278665","0.0-2.0-4.0-0.0-0.0","20","1","2022-04-02 06:18:56","c79472ad15d8b617a4d57d5bf56a810f","47.52.56.197","Mozilla/5.0 (Macintosh; Intel Mac OS X 10_15_7) AppleWebKit/537.36 (KHTML, like Gecko) Chrome/100.0.4896.60 Safari/537.36","Macintosh","Chrome","100.0.4896.60","OS X","10_15_7","null","null","","","<p style=""font-size:64px;"">+</p>","P_6_3_O",""
"","","","","","html-keyboard-response","81","279919","0.0-2.0-4.0-0.0-1.0","20","1","2022-04-02 06:18:56","c79472ad15d8b617a4d57d5bf56a810f","47.52.56.197","Mozilla/5.0 (Macintosh; Intel Mac OS X 10_15_7) AppleWebKit/537.36 (KHTML, like Gecko) Chrome/100.0.4896.60 Safari/537.36","Macintosh","Chrome","100.0.4896.60","OS X","10_15_7","null","null","","","
                        <div class=pink>
                        <div class=""centered"">
                            <p style=""font-size: 24px""><b>55%</b></p>
                        </div>","P_6_3_O",""
"","","","","","html-keyboard-response","82","280328","0.0-2.0-4.0-0.0-0.1","20","1","2022-04-02 06:18:56","c79472ad15d8b617a4d57d5bf56a810f","47.52.56.197","Mozilla/5.0 (Macintosh; Intel Mac OS X 10_15_7) AppleWebKit/537.36 (KHTML, like Gecko) Chrome/100.0.4896.60 Safari/537.36","Macintosh","Chrome","100.0.4896.60","OS X","10_15_7","null","null","","","<p style=""font-size:64px;"">+</p>","P_6_3_O",""
"","","","","","html-keyboard-response","83","281579","0.0-2.0-4.0-0.0-1.1","20","1","2022-04-02 06:18:56","c79472ad15d8b617a4d57d5bf56a810f","47.52.56.197","Mozilla/5.0 (Macintosh; Intel Mac OS X 10_15_7) AppleWebKit/537.36 (KHTML, like Gecko) Chrome/100.0.4896.60 Safari/537.36","Macintosh","Chrome","100.0.4896.60","OS X","10_15_7","null","null","","","
                        <div class=orange>
                        <div class=""centered"">
                            <p style=""font-size: 24px""><b>53%</b></p>
                        </div>","P_6_3_O",""
"","","","","","html-keyboard-response","84","281986","0.0-2.0-4.0-0.0-0.2","20","1","2022-04-02 06:18:56","c79472ad15d8b617a4d57d5bf56a810f","47.52.56.197","Mozilla/5.0 (Macintosh; Intel Mac OS X 10_15_7) AppleWebKit/537.36 (KHTML, like Gecko) Chrome/100.0.4896.60 Safari/537.36","Macintosh","Chrome","100.0.4896.60","OS X","10_15_7","null","null","","","<p style=""font-size:64px;"">+</p>","P_6_3_O",""
"","","","","","html-keyboard-response","85","283240","0.0-2.0-4.0-0.0-1.2","20","1","2022-04-02 06:18:56","c79472ad15d8b617a4d57d5bf56a810f","47.52.56.197","Mozilla/5.0 (Macintosh; Intel Mac OS X 10_15_7) AppleWebKit/537.36 (KHTML, like Gecko) Chrome/100.0.4896.60 Safari/537.36","Macintosh","Chrome","100.0.4896.60","OS X","10_15_7","null","null","","","
                        <div class=orange>
                        <div class=""centered"">
                            <p style=""font-size: 24px""><b>52%</b></p>
                        </div>","P_6_3_O",""
"","","","","","html-keyboard-response","86","283646","0.0-2.0-4.0-0.0-0.3","20","1","2022-04-02 06:18:56","c79472ad15d8b617a4d57d5bf56a810f","47.52.56.197","Mozilla/5.0 (Macintosh; Intel Mac OS X 10_15_7) AppleWebKit/537.36 (KHTML, like Gecko) Chrome/100.0.4896.60 Safari/537.36","Macintosh","Chrome","100.0.4896.60","OS X","10_15_7","null","null","","","<p style=""font-size:64px;"">+</p>","P_6_3_O",""
"","","","","","html-keyboard-response","87","284900","0.0-2.0-4.0-0.0-1.3","20","1","2022-04-02 06:18:56","c79472ad15d8b617a4d57d5bf56a810f","47.52.56.197","Mozilla/5.0 (Macintosh; Intel Mac OS X 10_15_7) AppleWebKit/537.36 (KHTML, like Gecko) Chrome/100.0.4896.60 Safari/537.36","Macintosh","Chrome","100.0.4896.60","OS X","10_15_7","null","null","","","
                        <div class=orange>
                        <div class=""centered"">
                            <p style=""font-size: 24px""><b>52%</b></p>
                        </div>","P_6_3_O",""
"","","","","","html-keyboard-response","88","285302","0.0-2.0-4.0-0.0-0.4","20","1","2022-04-02 06:18:56","c79472ad15d8b617a4d57d5bf56a810f","47.52.56.197","Mozilla/5.0 (Macintosh; Intel Mac OS X 10_15_7) AppleWebKit/537.36 (KHTML, like Gecko) Chrome/100.0.4896.60 Safari/537.36","Macintosh","Chrome","100.0.4896.60","OS X","10_15_7","null","null","","","<p style=""font-size:64px;"">+</p>","P_6_3_O",""
"","","","","","html-keyboard-response","89","286554","0.0-2.0-4.0-0.0-1.4","20","1","2022-04-02 06:18:56","c79472ad15d8b617a4d57d5bf56a810f","47.52.56.197","Mozilla/5.0 (Macintosh; Intel Mac OS X 10_15_7) AppleWebKit/537.36 (KHTML, like Gecko) Chrome/100.0.4896.60 Safari/537.36","Macintosh","Chrome","100.0.4896.60","OS X","10_15_7","null","null","","","
                        <div class=pink>
                        <div class=""centered"">
                            <p style=""font-size: 24px""><b>55%</b></p>
                        </div>","P_6_3_O",""
"","","","","","html-keyboard-response","90","286961","0.0-2.0-4.0-0.0-0.5","20","1","2022-04-02 06:18:56","c79472ad15d8b617a4d57d5bf56a810f","47.52.56.197","Mozilla/5.0 (Macintosh; Intel Mac OS X 10_15_7) AppleWebKit/537.36 (KHTML, like Gecko) Chrome/100.0.4896.60 Safari/537.36","Macintosh","Chrome","100.0.4896.60","OS X","10_15_7","null","null","","","<p style=""font-size:64px;"">+</p>","P_6_3_O",""
"","","","","","html-keyboard-response","91","288214","0.0-2.0-4.0-0.0-1.5","20","1","2022-04-02 06:18:56","c79472ad15d8b617a4d57d5bf56a810f","47.52.56.197","Mozilla/5.0 (Macintosh; Intel Mac OS X 10_15_7) AppleWebKit/537.36 (KHTML, like Gecko) Chrome/100.0.4896.60 Safari/537.36","Macintosh","Chrome","100.0.4896.60","OS X","10_15_7","null","null","","","
                        <div class=pink>
                        <div class=""centered"">
                            <p style=""font-size: 24px""><b>53%</b></p>
                        </div>","P_6_3_O",""
"","","","","","html-keyboard-response","92","288621","0.0-2.0-4.0-1.0-0.0","20","1","2022-04-02 06:18:56","c79472ad15d8b617a4d57d5bf56a810f","47.52.56.197","Mozilla/5.0 (Macintosh; Intel Mac OS X 10_15_7) AppleWebKit/537.36 (KHTML, like Gecko) Chrome/100.0.4896.60 Safari/537.36","Macintosh","Chrome","100.0.4896.60","OS X","10_15_7","null","null","","","<p style=""font-size:64px;"">+</p>","P_6_3_O",""
"","","","","","html-keyboard-response","93","289875","0.0-2.0-4.0-1.0-1.0","20","1","2022-04-02 06:18:56","c79472ad15d8b617a4d57d5bf56a810f","47.52.56.197","Mozilla/5.0 (Macintosh; Intel Mac OS X 10_15_7) AppleWebKit/537.36 (KHTML, like Gecko) Chrome/100.0.4896.60 Safari/537.36","Macintosh","Chrome","100.0.4896.60","OS X","10_15_7","null","null","","","
                        <div class=""orange"">
                        <div class=""centered"">
                            <p style=""font-size: 24px""><b>50%</b></p>
                        </div>","P_6_3_O",""
"","","","","","html-slider-response","94","293540","0.0-2.0-4.0-2.0","20","1","2022-04-02 06:18:56","c79472ad15d8b617a4d57d5bf56a810f","47.52.56.197","Mozilla/5.0 (Macintosh; Intel Mac OS X 10_15_7) AppleWebKit/537.36 (KHTML, like Gecko) Chrome/100.0.4896.60 Safari/537.36","Macintosh","Chrome","100.0.4896.60","OS X","10_15_7","3662.2999999998137","8","","","<div style=""width: 500px; height: 100px;""><p>Place your bid for more information.</p></div>","infoBid","37"
"","","","","","html-keyboard-response","95","293942","0.0-2.0-4.0-3.0-0.0","20","1","2022-04-02 06:18:56","c79472ad15d8b617a4d57d5bf56a810f","47.52.56.197","Mozilla/5.0 (Macintosh; Intel Mac OS X 10_15_7) AppleWebKit/537.36 (KHTML, like Gecko) Chrome/100.0.4896.60 Safari/537.36","Macintosh","Chrome","100.0.4896.60","OS X","10_15_7","null","null","","","<p style=""font-size:64px;"">+</p>","P_6_3_O",""
"","","","","","html-keyboard-response","96","295197","0.0-2.0-4.0-3.0-1.0","20","1","2022-04-02 06:18:56","c79472ad15d8b617a4d57d5bf56a810f","47.52.56.197","Mozilla/5.0 (Macintosh; Intel Mac OS X 10_15_7) AppleWebKit/537.36 (KHTML, like Gecko) Chrome/100.0.4896.60 Safari/537.36","Macintosh","Chrome","100.0.4896.60","OS X","10_15_7","null","null","","","<div class=""grey"">
                <div class=""centered"">
                    <p style=""font-size: 24px""><b>???</b></p>
                </div>","P_6_3_O",""
"","","","","","html-keyboard-response","97","297598","0.0-2.0-4.0-4.0-0.0","20","1","2022-04-02 06:18:56","c79472ad15d8b617a4d57d5bf56a810f","47.52.56.197","Mozilla/5.0 (Macintosh; Intel Mac OS X 10_15_7) AppleWebKit/537.36 (KHTML, like Gecko) Chrome/100.0.4896.60 Safari/537.36","Macintosh","Chrome","100.0.4896.60","OS X","10_15_7","2399.5","f","","","
                      <div class=""row"">

                          <div class=""column"">
                              <div class=""orange""></div>
                              <div class=""leftChoiceText"">
                                  <p style=""font-size: 32px""><b>F</b></p>
                              </div>
                          </div>

                          <div class=""column"">
                              <div class=""pink""></div>
                              <div class=""rightChoiceText"">
                                  <p style=""font-size: 32px""><b>J</b></p>
                              </div>
                          </div>

                      </div>

                      <div class=""centeredTop"">
                          Which colour do you<br>
                          predict will win?
                      </div>","P_6_3_O",""
"","","","","","html-keyboard-response","98","299105","0.0-2.0-4.0-4.0-1.0","20","1","2022-04-02 06:18:56","c79472ad15d8b617a4d57d5bf56a810f","47.52.56.197","Mozilla/5.0 (Macintosh; Intel Mac OS X 10_15_7) AppleWebKit/537.36 (KHTML, like Gecko) Chrome/100.0.4896.60 Safari/537.36","Macintosh","Chrome","100.0.4896.60","OS X","10_15_7","null","null","","","<p style=""font-size:64px;"">+</p>","P_6_3_O",""
"","","","","","html-keyboard-response","99","299511","0.0-2.0-5.0-0.0-0.0","20","1","2022-04-02 06:18:56","c79472ad15d8b617a4d57d5bf56a810f","47.52.56.197","Mozilla/5.0 (Macintosh; Intel Mac OS X 10_15_7) AppleWebKit/537.36 (KHTML, like Gecko) Chrome/100.0.4896.60 Safari/537.36","Macintosh","Chrome","100.0.4896.60","OS X","10_15_7","null","null","","","<p style=""font-size:64px;"">+</p>","O_2_1_O",""
"","","","","","html-keyboard-response","100","300767","0.0-2.0-5.0-0.0-1.0","20","1","2022-04-02 06:18:56","c79472ad15d8b617a4d57d5bf56a810f","47.52.56.197","Mozilla/5.0 (Macintosh; Intel Mac OS X 10_15_7) AppleWebKit/537.36 (KHTML, like Gecko) Chrome/100.0.4896.60 Safari/537.36","Macintosh","Chrome","100.0.4896.60","OS X","10_15_7","null","null","","","
                        <div class=orange>
                        <div class=""centered"">
                            <p style=""font-size: 24px""><b>52%</b></p>
                        </div>","O_2_1_O",""
"","","","","","html-keyboard-response","101","301172","0.0-2.0-5.0-0.0-0.1","20","1","2022-04-02 06:18:56","c79472ad15d8b617a4d57d5bf56a810f","47.52.56.197","Mozilla/5.0 (Macintosh; Intel Mac OS X 10_15_7) AppleWebKit/537.36 (KHTML, like Gecko) Chrome/100.0.4896.60 Safari/537.36","Macintosh","Chrome","100.0.4896.60","OS X","10_15_7","null","null","","","<p style=""font-size:64px;"">+</p>","O_2_1_O",""
"","","","","","html-keyboard-response","102","302425","0.0-2.0-5.0-0.0-1.1","20","1","2022-04-02 06:18:56","c79472ad15d8b617a4d57d5bf56a810f","47.52.56.197","Mozilla/5.0 (Macintosh; Intel Mac OS X 10_15_7) AppleWebKit/537.36 (KHTML, like Gecko) Chrome/100.0.4896.60 Safari/537.36","Macintosh","Chrome","100.0.4896.60","OS X","10_15_7","null","null","","","
                        <div class=orange>
                        <div class=""centered"">
                            <p style=""font-size: 24px""><b>54%</b></p>
                        </div>","O_2_1_O",""
"","","","","","html-keyboard-response","103","302831","0.0-2.0-5.0-0.0-0.2","20","1","2022-04-02 06:18:56","c79472ad15d8b617a4d57d5bf56a810f","47.52.56.197","Mozilla/5.0 (Macintosh; Intel Mac OS X 10_15_7) AppleWebKit/537.36 (KHTML, like Gecko) Chrome/100.0.4896.60 Safari/537.36","Macintosh","Chrome","100.0.4896.60","OS X","10_15_7","null","null","","","<p style=""font-size:64px;"">+</p>","O_2_1_O",""
"","","","","","html-keyboard-response","104","304086","0.0-2.0-5.0-0.0-1.2","20","1","2022-04-02 06:18:56","c79472ad15d8b617a4d57d5bf56a810f","47.52.56.197","Mozilla/5.0 (Macintosh; Intel Mac OS X 10_15_7) AppleWebKit/537.36 (KHTML, like Gecko) Chrome/100.0.4896.60 Safari/537.36","Macintosh","Chrome","100.0.4896.60","OS X","10_15_7","null","null","","","
                        <div class=orange>
                        <div class=""centered"">
                            <p style=""font-size: 24px""><b>54%</b></p>
                        </div>","O_2_1_O",""
"","","","","","html-keyboard-response","105","304492","0.0-2.0-5.0-0.0-0.3","20","1","2022-04-02 06:18:56","c79472ad15d8b617a4d57d5bf56a810f","47.52.56.197","Mozilla/5.0 (Macintosh; Intel Mac OS X 10_15_7) AppleWebKit/537.36 (KHTML, like Gecko) Chrome/100.0.4896.60 Safari/537.36","Macintosh","Chrome","100.0.4896.60","OS X","10_15_7","null","null","","","<p style=""font-size:64px;"">+</p>","O_2_1_O",""
"","","","","","html-keyboard-response","106","305746","0.0-2.0-5.0-0.0-1.3","20","1","2022-04-02 06:18:56","c79472ad15d8b617a4d57d5bf56a810f","47.52.56.197","Mozilla/5.0 (Macintosh; Intel Mac OS X 10_15_7) AppleWebKit/537.36 (KHTML, like Gecko) Chrome/100.0.4896.60 Safari/537.36","Macintosh","Chrome","100.0.4896.60","OS X","10_15_7","null","null","","","
                        <div class=pink>
                        <div class=""centered"">
                            <p style=""font-size: 24px""><b>55%</b></p>
                        </div>","O_2_1_O",""
"","","","","","html-keyboard-response","107","306152","0.0-2.0-5.0-0.0-0.4","20","1","2022-04-02 06:18:56","c79472ad15d8b617a4d57d5bf56a810f","47.52.56.197","Mozilla/5.0 (Macintosh; Intel Mac OS X 10_15_7) AppleWebKit/537.36 (KHTML, like Gecko) Chrome/100.0.4896.60 Safari/537.36","Macintosh","Chrome","100.0.4896.60","OS X","10_15_7","null","null","","","<p style=""font-size:64px;"">+</p>","O_2_1_O",""
"","","","","","html-keyboard-response","108","307406","0.0-2.0-5.0-0.0-1.4","20","1","2022-04-02 06:18:56","c79472ad15d8b617a4d57d5bf56a810f","47.52.56.197","Mozilla/5.0 (Macintosh; Intel Mac OS X 10_15_7) AppleWebKit/537.36 (KHTML, like Gecko) Chrome/100.0.4896.60 Safari/537.36","Macintosh","Chrome","100.0.4896.60","OS X","10_15_7","null","null","","","
                        <div class=pink>
                        <div class=""centered"">
                            <p style=""font-size: 24px""><b>51%</b></p>
                        </div>","O_2_1_O",""
"","","","","","html-keyboard-response","109","307810","0.0-2.0-5.0-0.0-0.5","20","1","2022-04-02 06:18:56","c79472ad15d8b617a4d57d5bf56a810f","47.52.56.197","Mozilla/5.0 (Macintosh; Intel Mac OS X 10_15_7) AppleWebKit/537.36 (KHTML, like Gecko) Chrome/100.0.4896.60 Safari/537.36","Macintosh","Chrome","100.0.4896.60","OS X","10_15_7","null","null","","","<p style=""font-size:64px;"">+</p>","O_2_1_O",""
"","","","","","html-keyboard-response","110","309067","0.0-2.0-5.0-0.0-1.5","20","1","2022-04-02 06:18:56","c79472ad15d8b617a4d57d5bf56a810f","47.52.56.197","Mozilla/5.0 (Macintosh; Intel Mac OS X 10_15_7) AppleWebKit/537.36 (KHTML, like Gecko) Chrome/100.0.4896.60 Safari/537.36","Macintosh","Chrome","100.0.4896.60","OS X","10_15_7","null","null","","","
                        <div class=pink>
                        <div class=""centered"">
                            <p style=""font-size: 24px""><b>52%</b></p>
                        </div>","O_2_1_O",""
"","","","","","html-keyboard-response","111","309469","0.0-2.0-5.0-1.0-0.0","20","1","2022-04-02 06:18:56","c79472ad15d8b617a4d57d5bf56a810f","47.52.56.197","Mozilla/5.0 (Macintosh; Intel Mac OS X 10_15_7) AppleWebKit/537.36 (KHTML, like Gecko) Chrome/100.0.4896.60 Safari/537.36","Macintosh","Chrome","100.0.4896.60","OS X","10_15_7","null","null","","","<p style=""font-size:64px;"">+</p>","O_2_1_O",""
"","","","","","html-keyboard-response","112","310721","0.0-2.0-5.0-1.0-1.0","20","1","2022-04-02 06:18:56","c79472ad15d8b617a4d57d5bf56a810f","47.52.56.197","Mozilla/5.0 (Macintosh; Intel Mac OS X 10_15_7) AppleWebKit/537.36 (KHTML, like Gecko) Chrome/100.0.4896.60 Safari/537.36","Macintosh","Chrome","100.0.4896.60","OS X","10_15_7","null","null","","","
                        <div class=""orange"">
                        <div class=""centered"">
                            <p style=""font-size: 24px""><b>50%</b></p>
                        </div>","O_2_1_O",""
"","","","","","html-slider-response","113","320958","0.0-2.0-5.0-2.0","20","1","2022-04-02 06:18:56","c79472ad15d8b617a4d57d5bf56a810f","47.52.56.197","Mozilla/5.0 (Macintosh; Intel Mac OS X 10_15_7) AppleWebKit/537.36 (KHTML, like Gecko) Chrome/100.0.4896.60 Safari/537.36","Macintosh","Chrome","100.0.4896.60","OS X","10_15_7","10235","0","","","<div style=""width: 500px; height: 100px;""><p>Place your bid for more information.</p></div>","infoBid","21"
"","","","","","html-keyboard-response","114","321362","0.0-2.0-5.0-3.0-0.0","20","1","2022-04-02 06:18:56","c79472ad15d8b617a4d57d5bf56a810f","47.52.56.197","Mozilla/5.0 (Macintosh; Intel Mac OS X 10_15_7) AppleWebKit/537.36 (KHTML, like Gecko) Chrome/100.0.4896.60 Safari/537.36","Macintosh","Chrome","100.0.4896.60","OS X","10_15_7","null","null","","","<p style=""font-size:64px;"">+</p>","O_2_1_O",""
"","","","","","html-keyboard-response","115","322616","0.0-2.0-5.0-3.0-1.0","20","1","2022-04-02 06:18:56","c79472ad15d8b617a4d57d5bf56a810f","47.52.56.197","Mozilla/5.0 (Macintosh; Intel Mac OS X 10_15_7) AppleWebKit/537.36 (KHTML, like Gecko) Chrome/100.0.4896.60 Safari/537.36","Macintosh","Chrome","100.0.4896.60","OS X","10_15_7","null","null","","","<div class=""grey"">
                <div class=""centered"">
                    <p style=""font-size: 24px""><b>???</b></p>
                </div>","O_2_1_O",""
"","","","","","html-keyboard-response","116","323230","0.0-2.0-5.0-4.0-0.0","20","1","2022-04-02 06:18:56","c79472ad15d8b617a4d57d5bf56a810f","47.52.56.197","Mozilla/5.0 (Macintosh; Intel Mac OS X 10_15_7) AppleWebKit/537.36 (KHTML, like Gecko) Chrome/100.0.4896.60 Safari/537.36","Macintosh","Chrome","100.0.4896.60","OS X","10_15_7","612.2999999998137","f","","","
                      <div class=""row"">

                          <div class=""column"">
                              <div class=""orange""></div>
                              <div class=""leftChoiceText"">
                                  <p style=""font-size: 32px""><b>F</b></p>
                              </div>
                          </div>

                          <div class=""column"">
                              <div class=""pink""></div>
                              <div class=""rightChoiceText"">
                                  <p style=""font-size: 32px""><b>J</b></p>
                              </div>
                          </div>

                      </div>

                      <div class=""centeredTop"">
                          Which colour do you<br>
                          predict will win?
                      </div>","O_2_1_O",""
"","","","","","html-keyboard-response","117","324735","0.0-2.0-5.0-4.0-1.0","20","1","2022-04-02 06:18:56","c79472ad15d8b617a4d57d5bf56a810f","47.52.56.197","Mozilla/5.0 (Macintosh; Intel Mac OS X 10_15_7) AppleWebKit/537.36 (KHTML, like Gecko) Chrome/100.0.4896.60 Safari/537.36","Macintosh","Chrome","100.0.4896.60","OS X","10_15_7","null","null","","","<p style=""font-size:64px;"">+</p>","O_2_1_O",""
"","","","","","html-keyboard-response","118","325141","0.0-2.0-6.0-0.0-0.0","20","1","2022-04-02 06:18:56","c79472ad15d8b617a4d57d5bf56a810f","47.52.56.197","Mozilla/5.0 (Macintosh; Intel Mac OS X 10_15_7) AppleWebKit/537.36 (KHTML, like Gecko) Chrome/100.0.4896.60 Safari/537.36","Macintosh","Chrome","100.0.4896.60","OS X","10_15_7","null","null","","","<p style=""font-size:64px;"">+</p>","P_6_4_O",""
"","","","","","html-keyboard-response","119","326395","0.0-2.0-6.0-0.0-1.0","20","1","2022-04-02 06:18:56","c79472ad15d8b617a4d57d5bf56a810f","47.52.56.197","Mozilla/5.0 (Macintosh; Intel Mac OS X 10_15_7) AppleWebKit/537.36 (KHTML, like Gecko) Chrome/100.0.4896.60 Safari/537.36","Macintosh","Chrome","100.0.4896.60","OS X","10_15_7","null","null","","","
                        <div class=pink>
                        <div class=""centered"">
                            <p style=""font-size: 24px""><b>54%</b></p>
                        </div>","P_6_4_O",""
"","","","","","html-keyboard-response","120","326801","0.0-2.0-6.0-0.0-0.1","20","1","2022-04-02 06:18:56","c79472ad15d8b617a4d57d5bf56a810f","47.52.56.197","Mozilla/5.0 (Macintosh; Intel Mac OS X 10_15_7) AppleWebKit/537.36 (KHTML, like Gecko) Chrome/100.0.4896.60 Safari/537.36","Macintosh","Chrome","100.0.4896.60","OS X","10_15_7","null","null","","","<p style=""font-size:64px;"">+</p>","P_6_4_O",""
"","","","","","html-keyboard-response","121","328055","0.0-2.0-6.0-0.0-1.1","20","1","2022-04-02 06:18:56","c79472ad15d8b617a4d57d5bf56a810f","47.52.56.197","Mozilla/5.0 (Macintosh; Intel Mac OS X 10_15_7) AppleWebKit/537.36 (KHTML, like Gecko) Chrome/100.0.4896.60 Safari/537.36","Macintosh","Chrome","100.0.4896.60","OS X","10_15_7","null","null","","","
                        <div class=orange>
                        <div class=""centered"">
                            <p style=""font-size: 24px""><b>52%</b></p>
                        </div>","P_6_4_O",""
"","","","","","html-keyboard-response","122","328462","0.0-2.0-6.0-0.0-0.2","20","1","2022-04-02 06:18:56","c79472ad15d8b617a4d57d5bf56a810f","47.52.56.197","Mozilla/5.0 (Macintosh; Intel Mac OS X 10_15_7) AppleWebKit/537.36 (KHTML, like Gecko) Chrome/100.0.4896.60 Safari/537.36","Macintosh","Chrome","100.0.4896.60","OS X","10_15_7","null","null","","","<p style=""font-size:64px;"">+</p>","P_6_4_O",""
"","","","","","html-keyboard-response","123","329716","0.0-2.0-6.0-0.0-1.2","20","1","2022-04-02 06:18:56","c79472ad15d8b617a4d57d5bf56a810f","47.52.56.197","Mozilla/5.0 (Macintosh; Intel Mac OS X 10_15_7) AppleWebKit/537.36 (KHTML, like Gecko) Chrome/100.0.4896.60 Safari/537.36","Macintosh","Chrome","100.0.4896.60","OS X","10_15_7","null","null","","","
                        <div class=pink>
                        <div class=""centered"">
                            <p style=""font-size: 24px""><b>54%</b></p>
                        </div>","P_6_4_O",""
"","","","","","html-keyboard-response","124","330122","0.0-2.0-6.0-0.0-0.3","20","1","2022-04-02 06:18:56","c79472ad15d8b617a4d57d5bf56a810f","47.52.56.197","Mozilla/5.0 (Macintosh; Intel Mac OS X 10_15_7) AppleWebKit/537.36 (KHTML, like Gecko) Chrome/100.0.4896.60 Safari/537.36","Macintosh","Chrome","100.0.4896.60","OS X","10_15_7","null","null","","","<p style=""font-size:64px;"">+</p>","P_6_4_O",""
"","","","","","html-keyboard-response","125","331376","0.0-2.0-6.0-0.0-1.3","20","1","2022-04-02 06:18:56","c79472ad15d8b617a4d57d5bf56a810f","47.52.56.197","Mozilla/5.0 (Macintosh; Intel Mac OS X 10_15_7) AppleWebKit/537.36 (KHTML, like Gecko) Chrome/100.0.4896.60 Safari/537.36","Macintosh","Chrome","100.0.4896.60","OS X","10_15_7","null","null","","","
                        <div class=pink>
                        <div class=""centered"">
                            <p style=""font-size: 24px""><b>55%</b></p>
                        </div>","P_6_4_O",""
"","","","","","html-keyboard-response","126","331782","0.0-2.0-6.0-0.0-0.4","20","1","2022-04-02 06:18:56","c79472ad15d8b617a4d57d5bf56a810f","47.52.56.197","Mozilla/5.0 (Macintosh; Intel Mac OS X 10_15_7) AppleWebKit/537.36 (KHTML, like Gecko) Chrome/100.0.4896.60 Safari/537.36","Macintosh","Chrome","100.0.4896.60","OS X","10_15_7","null","null","","","<p style=""font-size:64px;"">+</p>","P_6_4_O",""
"","","","","","html-keyboard-response","127","333036","0.0-2.0-6.0-0.0-1.4","20","1","2022-04-02 06:18:56","c79472ad15d8b617a4d57d5bf56a810f","47.52.56.197","Mozilla/5.0 (Macintosh; Intel Mac OS X 10_15_7) AppleWebKit/537.36 (KHTML, like Gecko) Chrome/100.0.4896.60 Safari/537.36","Macintosh","Chrome","100.0.4896.60","OS X","10_15_7","null","null","","","
                        <div class=orange>
                        <div class=""centered"">
                            <p style=""font-size: 24px""><b>52%</b></p>
                        </div>","P_6_4_O",""
"","","","","","html-keyboard-response","128","333442","0.0-2.0-6.0-0.0-0.5","20","1","2022-04-02 06:18:56","c79472ad15d8b617a4d57d5bf56a810f","47.52.56.197","Mozilla/5.0 (Macintosh; Intel Mac OS X 10_15_7) AppleWebKit/537.36 (KHTML, like Gecko) Chrome/100.0.4896.60 Safari/537.36","Macintosh","Chrome","100.0.4896.60","OS X","10_15_7","null","null","","","<p style=""font-size:64px;"">+</p>","P_6_4_O",""
"","","","","","html-keyboard-response","129","334696","0.0-2.0-6.0-0.0-1.5","20","1","2022-04-02 06:18:56","c79472ad15d8b617a4d57d5bf56a810f","47.52.56.197","Mozilla/5.0 (Macintosh; Intel Mac OS X 10_15_7) AppleWebKit/537.36 (KHTML, like Gecko) Chrome/100.0.4896.60 Safari/537.36","Macintosh","Chrome","100.0.4896.60","OS X","10_15_7","null","null","","","
                        <div class=orange>
                        <div class=""centered"">
                            <p style=""font-size: 24px""><b>53%</b></p>
                        </div>","P_6_4_O",""
"","","","","","html-keyboard-response","130","335103","0.0-2.0-6.0-1.0-0.0","20","1","2022-04-02 06:18:56","c79472ad15d8b617a4d57d5bf56a810f","47.52.56.197","Mozilla/5.0 (Macintosh; Intel Mac OS X 10_15_7) AppleWebKit/537.36 (KHTML, like Gecko) Chrome/100.0.4896.60 Safari/537.36","Macintosh","Chrome","100.0.4896.60","OS X","10_15_7","null","null","","","<p style=""font-size:64px;"">+</p>","P_6_4_O",""
"","","","","","html-keyboard-response","131","336356","0.0-2.0-6.0-1.0-1.0","20","1","2022-04-02 06:18:56","c79472ad15d8b617a4d57d5bf56a810f","47.52.56.197","Mozilla/5.0 (Macintosh; Intel Mac OS X 10_15_7) AppleWebKit/537.36 (KHTML, like Gecko) Chrome/100.0.4896.60 Safari/537.36","Macintosh","Chrome","100.0.4896.60","OS X","10_15_7","null","null","","","
                        <div class=""orange"">
                        <div class=""centered"">
                            <p style=""font-size: 24px""><b>50%</b></p>
                        </div>","P_6_4_O",""
"","","","","","html-slider-response","132","337985","0.0-2.0-6.0-2.0","20","1","2022-04-02 06:18:56","c79472ad15d8b617a4d57d5bf56a810f","47.52.56.197","Mozilla/5.0 (Macintosh; Intel Mac OS X 10_15_7) AppleWebKit/537.36 (KHTML, like Gecko) Chrome/100.0.4896.60 Safari/537.36","Macintosh","Chrome","100.0.4896.60","OS X","10_15_7","1626.6000000000931","23","","","<div style=""width: 500px; height: 100px;""><p>Place your bid for more information.</p></div>","infoBid","7"
"","","","","","html-keyboard-response","133","338388","0.0-2.0-6.0-3.0-0.0","20","1","2022-04-02 06:18:56","c79472ad15d8b617a4d57d5bf56a810f","47.52.56.197","Mozilla/5.0 (Macintosh; Intel Mac OS X 10_15_7) AppleWebKit/537.36 (KHTML, like Gecko) Chrome/100.0.4896.60 Safari/537.36","Macintosh","Chrome","100.0.4896.60","OS X","10_15_7","null","null","","","<p style=""font-size:64px;"">+</p>","P_6_4_O",""
"","","","","","html-keyboard-response","134","339643","0.0-2.0-6.0-3.0-1.0","20","1","2022-04-02 06:18:56","c79472ad15d8b617a4d57d5bf56a810f","47.52.56.197","Mozilla/5.0 (Macintosh; Intel Mac OS X 10_15_7) AppleWebKit/537.36 (KHTML, like Gecko) Chrome/100.0.4896.60 Safari/537.36","Macintosh","Chrome","100.0.4896.60","OS X","10_15_7","null","null","","","<div class=orange>
                <div class=""centered"">
                    <p style=""font-size: 24px""><b>52%</b></p>
                </div>","P_6_4_O",""
"","","","","","html-keyboard-response","135","340338","0.0-2.0-6.0-4.0-0.0","20","1","2022-04-02 06:18:56","c79472ad15d8b617a4d57d5bf56a810f","47.52.56.197","Mozilla/5.0 (Macintosh; Intel Mac OS X 10_15_7) AppleWebKit/537.36 (KHTML, like Gecko) Chrome/100.0.4896.60 Safari/537.36","Macintosh","Chrome","100.0.4896.60","OS X","10_15_7","693.8999999999069","j","","","
                      <div class=""row"">

                          <div class=""column"">
                              <div class=""orange""></div>
                              <div class=""leftChoiceText"">
                                  <p style=""font-size: 32px""><b>F</b></p>
                              </div>
                          </div>

                          <div class=""column"">
                              <div class=""pink""></div>
                              <div class=""rightChoiceText"">
                                  <p style=""font-size: 32px""><b>J</b></p>
                              </div>
                          </div>

                      </div>

                      <div class=""centeredTop"">
                          Which colour do you<br>
                          predict will win?
                      </div>","P_6_4_O",""
"","","","","","html-keyboard-response","136","341842","0.0-2.0-6.0-4.0-1.0","20","1","2022-04-02 06:18:56","c79472ad15d8b617a4d57d5bf56a810f","47.52.56.197","Mozilla/5.0 (Macintosh; Intel Mac OS X 10_15_7) AppleWebKit/537.36 (KHTML, like Gecko) Chrome/100.0.4896.60 Safari/537.36","Macintosh","Chrome","100.0.4896.60","OS X","10_15_7","null","null","","","<p style=""font-size:64px;"">+</p>","P_6_4_O",""
"","","","","","html-keyboard-response","137","342249","0.0-2.0-7.0-0.0-0.0","20","1","2022-04-02 06:18:56","c79472ad15d8b617a4d57d5bf56a810f","47.52.56.197","Mozilla/5.0 (Macintosh; Intel Mac OS X 10_15_7) AppleWebKit/537.36 (KHTML, like Gecko) Chrome/100.0.4896.60 Safari/537.36","Macintosh","Chrome","100.0.4896.60","OS X","10_15_7","null","null","","","<p style=""font-size:64px;"">+</p>","O_4_4_P",""
"","","","","","html-keyboard-response","138","343503","0.0-2.0-7.0-0.0-1.0","20","1","2022-04-02 06:18:56","c79472ad15d8b617a4d57d5bf56a810f","47.52.56.197","Mozilla/5.0 (Macintosh; Intel Mac OS X 10_15_7) AppleWebKit/537.36 (KHTML, like Gecko) Chrome/100.0.4896.60 Safari/537.36","Macintosh","Chrome","100.0.4896.60","OS X","10_15_7","null","null","","","
                        <div class=orange>
                        <div class=""centered"">
                            <p style=""font-size: 24px""><b>54%</b></p>
                        </div>","O_4_4_P",""
"","","","","","html-keyboard-response","139","343909","0.0-2.0-7.0-0.0-0.1","20","1","2022-04-02 06:18:56","c79472ad15d8b617a4d57d5bf56a810f","47.52.56.197","Mozilla/5.0 (Macintosh; Intel Mac OS X 10_15_7) AppleWebKit/537.36 (KHTML, like Gecko) Chrome/100.0.4896.60 Safari/537.36","Macintosh","Chrome","100.0.4896.60","OS X","10_15_7","null","null","","","<p style=""font-size:64px;"">+</p>","O_4_4_P",""
"","","","","","html-keyboard-response","140","345163","0.0-2.0-7.0-0.0-1.1","20","1","2022-04-02 06:18:56","c79472ad15d8b617a4d57d5bf56a810f","47.52.56.197","Mozilla/5.0 (Macintosh; Intel Mac OS X 10_15_7) AppleWebKit/537.36 (KHTML, like Gecko) Chrome/100.0.4896.60 Safari/537.36","Macintosh","Chrome","100.0.4896.60","OS X","10_15_7","null","null","","","
                        <div class=pink>
                        <div class=""centered"">
                            <p style=""font-size: 24px""><b>52%</b></p>
                        </div>","O_4_4_P",""
"","","","","","html-keyboard-response","141","345569","0.0-2.0-7.0-0.0-0.2","20","1","2022-04-02 06:18:56","c79472ad15d8b617a4d57d5bf56a810f","47.52.56.197","Mozilla/5.0 (Macintosh; Intel Mac OS X 10_15_7) AppleWebKit/537.36 (KHTML, like Gecko) Chrome/100.0.4896.60 Safari/537.36","Macintosh","Chrome","100.0.4896.60","OS X","10_15_7","null","null","","","<p style=""font-size:64px;"">+</p>","O_4_4_P",""
"","","","","","html-keyboard-response","142","346822","0.0-2.0-7.0-0.0-1.2","20","1","2022-04-02 06:18:56","c79472ad15d8b617a4d57d5bf56a810f","47.52.56.197","Mozilla/5.0 (Macintosh; Intel Mac OS X 10_15_7) AppleWebKit/537.36 (KHTML, like Gecko) Chrome/100.0.4896.60 Safari/537.36","Macintosh","Chrome","100.0.4896.60","OS X","10_15_7","null","null","","","
                        <div class=orange>
                        <div class=""centered"">
                            <p style=""font-size: 24px""><b>55%</b></p>
                        </div>","O_4_4_P",""
"","","","","","html-keyboard-response","143","347229","0.0-2.0-7.0-0.0-0.3","20","1","2022-04-02 06:18:56","c79472ad15d8b617a4d57d5bf56a810f","47.52.56.197","Mozilla/5.0 (Macintosh; Intel Mac OS X 10_15_7) AppleWebKit/537.36 (KHTML, like Gecko) Chrome/100.0.4896.60 Safari/537.36","Macintosh","Chrome","100.0.4896.60","OS X","10_15_7","null","null","","","<p style=""font-size:64px;"">+</p>","O_4_4_P",""
"","","","","","html-keyboard-response","144","348483","0.0-2.0-7.0-0.0-1.3","20","1","2022-04-02 06:18:56","c79472ad15d8b617a4d57d5bf56a810f","47.52.56.197","Mozilla/5.0 (Macintosh; Intel Mac OS X 10_15_7) AppleWebKit/537.36 (KHTML, like Gecko) Chrome/100.0.4896.60 Safari/537.36","Macintosh","Chrome","100.0.4896.60","OS X","10_15_7","null","null","","","
                        <div class=orange>
                        <div class=""centered"">
                            <p style=""font-size: 24px""><b>54%</b></p>
                        </div>","O_4_4_P",""
"","","","","","html-keyboard-response","145","348890","0.0-2.0-7.0-0.0-0.4","20","1","2022-04-02 06:18:56","c79472ad15d8b617a4d57d5bf56a810f","47.52.56.197","Mozilla/5.0 (Macintosh; Intel Mac OS X 10_15_7) AppleWebKit/537.36 (KHTML, like Gecko) Chrome/100.0.4896.60 Safari/537.36","Macintosh","Chrome","100.0.4896.60","OS X","10_15_7","null","null","","","<p style=""font-size:64px;"">+</p>","O_4_4_P",""
"","","","","","html-keyboard-response","146","350144","0.0-2.0-7.0-0.0-1.4","20","1","2022-04-02 06:18:56","c79472ad15d8b617a4d57d5bf56a810f","47.52.56.197","Mozilla/5.0 (Macintosh; Intel Mac OS X 10_15_7) AppleWebKit/537.36 (KHTML, like Gecko) Chrome/100.0.4896.60 Safari/537.36","Macintosh","Chrome","100.0.4896.60","OS X","10_15_7","null","null","","","
                        <div class=pink>
                        <div class=""centered"">
                            <p style=""font-size: 24px""><b>55%</b></p>
                        </div>","O_4_4_P",""
"","","","","","html-keyboard-response","147","350550","0.0-2.0-7.0-0.0-0.5","20","1","2022-04-02 06:18:56","c79472ad15d8b617a4d57d5bf56a810f","47.52.56.197","Mozilla/5.0 (Macintosh; Intel Mac OS X 10_15_7) AppleWebKit/537.36 (KHTML, like Gecko) Chrome/100.0.4896.60 Safari/537.36","Macintosh","Chrome","100.0.4896.60","OS X","10_15_7","null","null","","","<p style=""font-size:64px;"">+</p>","O_4_4_P",""
"","","","","","html-keyboard-response","148","351806","0.0-2.0-7.0-0.0-1.5","20","1","2022-04-02 06:18:56","c79472ad15d8b617a4d57d5bf56a810f","47.52.56.197","Mozilla/5.0 (Macintosh; Intel Mac OS X 10_15_7) AppleWebKit/537.36 (KHTML, like Gecko) Chrome/100.0.4896.60 Safari/537.36","Macintosh","Chrome","100.0.4896.60","OS X","10_15_7","null","null","","","
                        <div class=pink>
                        <div class=""centered"">
                            <p style=""font-size: 24px""><b>52%</b></p>
                        </div>","O_4_4_P",""
"","","","","","html-keyboard-response","149","352209","0.0-2.0-7.0-1.0-0.0","20","1","2022-04-02 06:18:56","c79472ad15d8b617a4d57d5bf56a810f","47.52.56.197","Mozilla/5.0 (Macintosh; Intel Mac OS X 10_15_7) AppleWebKit/537.36 (KHTML, like Gecko) Chrome/100.0.4896.60 Safari/537.36","Macintosh","Chrome","100.0.4896.60","OS X","10_15_7","null","null","","","<p style=""font-size:64px;"">+</p>","O_4_4_P",""
"","","","","","html-keyboard-response","150","353464","0.0-2.0-7.0-1.0-1.0","20","1","2022-04-02 06:18:56","c79472ad15d8b617a4d57d5bf56a810f","47.52.56.197","Mozilla/5.0 (Macintosh; Intel Mac OS X 10_15_7) AppleWebKit/537.36 (KHTML, like Gecko) Chrome/100.0.4896.60 Safari/537.36","Macintosh","Chrome","100.0.4896.60","OS X","10_15_7","null","null","","","
                        <div class=""pink"">
                        <div class=""centered"">
                            <p style=""font-size: 24px""><b>50%</b></p>
                        </div>","O_4_4_P",""
"","","","","","html-slider-response","151","356481","0.0-2.0-7.0-2.0","20","1","2022-04-02 06:18:56","c79472ad15d8b617a4d57d5bf56a810f","47.52.56.197","Mozilla/5.0 (Macintosh; Intel Mac OS X 10_15_7) AppleWebKit/537.36 (KHTML, like Gecko) Chrome/100.0.4896.60 Safari/537.36","Macintosh","Chrome","100.0.4896.60","OS X","10_15_7","3014.7000000001863","17","","","<div style=""width: 500px; height: 100px;""><p>Place your bid for more information.</p></div>","infoBid","9"
"","","","","","html-keyboard-response","152","356885","0.0-2.0-7.0-3.0-0.0","20","1","2022-04-02 06:18:56","c79472ad15d8b617a4d57d5bf56a810f","47.52.56.197","Mozilla/5.0 (Macintosh; Intel Mac OS X 10_15_7) AppleWebKit/537.36 (KHTML, like Gecko) Chrome/100.0.4896.60 Safari/537.36","Macintosh","Chrome","100.0.4896.60","OS X","10_15_7","null","null","","","<p style=""font-size:64px;"">+</p>","O_4_4_P",""
"","","","","","html-keyboard-response","153","358137","0.0-2.0-7.0-3.0-1.0","20","1","2022-04-02 06:18:56","c79472ad15d8b617a4d57d5bf56a810f","47.52.56.197","Mozilla/5.0 (Macintosh; Intel Mac OS X 10_15_7) AppleWebKit/537.36 (KHTML, like Gecko) Chrome/100.0.4896.60 Safari/537.36","Macintosh","Chrome","100.0.4896.60","OS X","10_15_7","null","null","","","<div class=orange>
                <div class=""centered"">
                    <p style=""font-size: 24px""><b>51%</b></p>
                </div>","O_4_4_P",""
"","","","","","html-keyboard-response","154","364894","0.0-2.0-7.0-4.0-0.0","20","1","2022-04-02 06:18:56","c79472ad15d8b617a4d57d5bf56a810f","47.52.56.197","Mozilla/5.0 (Macintosh; Intel Mac OS X 10_15_7) AppleWebKit/537.36 (KHTML, like Gecko) Chrome/100.0.4896.60 Safari/537.36","Macintosh","Chrome","100.0.4896.60","OS X","10_15_7","6754.899999999907","f","","","
                      <div class=""row"">

                          <div class=""column"">
                              <div class=""orange""></div>
                              <div class=""leftChoiceText"">
                                  <p style=""font-size: 32px""><b>F</b></p>
                              </div>
                          </div>

                          <div class=""column"">
                              <div class=""pink""></div>
                              <div class=""rightChoiceText"">
                                  <p style=""font-size: 32px""><b>J</b></p>
                              </div>
                          </div>

                      </div>

                      <div class=""centeredTop"">
                          Which colour do you<br>
                          predict will win?
                      </div>","O_4_4_P",""
"","","","","","html-keyboard-response","155","366398","0.0-2.0-7.0-4.0-1.0","20","1","2022-04-02 06:18:56","c79472ad15d8b617a4d57d5bf56a810f","47.52.56.197","Mozilla/5.0 (Macintosh; Intel Mac OS X 10_15_7) AppleWebKit/537.36 (KHTML, like Gecko) Chrome/100.0.4896.60 Safari/537.36","Macintosh","Chrome","100.0.4896.60","OS X","10_15_7","null","null","","","<p style=""font-size:64px;"">+</p>","O_4_4_P",""
"","","","","","html-keyboard-response","156","371204","0.0-2.0-8.0","20","1","2022-04-02 06:18:56","c79472ad15d8b617a4d57d5bf56a810f","47.52.56.197","Mozilla/5.0 (Macintosh; Intel Mac OS X 10_15_7) AppleWebKit/537.36 (KHTML, like Gecko) Chrome/100.0.4896.60 Safari/537.36","Macintosh","Chrome","100.0.4896.60","OS X","10_15_7","4801.800000000279"," ","","","This is the end of the practice trials.<br><br>
        Press spacebar to begin the experiment.","",""
"","","","","","html-keyboard-response","157","371606","0.0-2.0-9.0-0.0-0.0","20","1","2022-04-02 06:18:56","c79472ad15d8b617a4d57d5bf56a810f","47.52.56.197","Mozilla/5.0 (Macintosh; Intel Mac OS X 10_15_7) AppleWebKit/537.36 (KHTML, like Gecko) Chrome/100.0.4896.60 Safari/537.36","Macintosh","Chrome","100.0.4896.60","OS X","10_15_7","null","null","","","<p style=""font-size:64px;"">+</p>","O_4_3_P",""
"","","","","","html-keyboard-response","158","372859","0.0-2.0-9.0-0.0-1.0","20","1","2022-04-02 06:18:56","c79472ad15d8b617a4d57d5bf56a810f","47.52.56.197","Mozilla/5.0 (Macintosh; Intel Mac OS X 10_15_7) AppleWebKit/537.36 (KHTML, like Gecko) Chrome/100.0.4896.60 Safari/537.36","Macintosh","Chrome","100.0.4896.60","OS X","10_15_7","null","null","","","
                        <div class=orange>
                        <div class=""centered"">
                            <p style=""font-size: 24px""><b>53%</b></p>
                        </div>","O_4_3_P",""
"","","","","","html-keyboard-response","159","373265","0.0-2.0-9.0-0.0-0.1","20","1","2022-04-02 06:18:56","c79472ad15d8b617a4d57d5bf56a810f","47.52.56.197","Mozilla/5.0 (Macintosh; Intel Mac OS X 10_15_7) AppleWebKit/537.36 (KHTML, like Gecko) Chrome/100.0.4896.60 Safari/537.36","Macintosh","Chrome","100.0.4896.60","OS X","10_15_7","null","null","","","<p style=""font-size:64px;"">+</p>","O_4_3_P",""
"","","","","","html-keyboard-response","160","374518","0.0-2.0-9.0-0.0-1.1","20","1","2022-04-02 06:18:56","c79472ad15d8b617a4d57d5bf56a810f","47.52.56.197","Mozilla/5.0 (Macintosh; Intel Mac OS X 10_15_7) AppleWebKit/537.36 (KHTML, like Gecko) Chrome/100.0.4896.60 Safari/537.36","Macintosh","Chrome","100.0.4896.60","OS X","10_15_7","null","null","","","
                        <div class=pink>
                        <div class=""centered"">
                            <p style=""font-size: 24px""><b>53%</b></p>
                        </div>","O_4_3_P",""
"","","","","","html-keyboard-response","161","374920","0.0-2.0-9.0-0.0-0.2","20","1","2022-04-02 06:18:56","c79472ad15d8b617a4d57d5bf56a810f","47.52.56.197","Mozilla/5.0 (Macintosh; Intel Mac OS X 10_15_7) AppleWebKit/537.36 (KHTML, like Gecko) Chrome/100.0.4896.60 Safari/537.36","Macintosh","Chrome","100.0.4896.60","OS X","10_15_7","null","null","","","<p style=""font-size:64px;"">+</p>","O_4_3_P",""
"","","","","","html-keyboard-response","162","376177","0.0-2.0-9.0-0.0-1.2","20","1","2022-04-02 06:18:56","c79472ad15d8b617a4d57d5bf56a810f","47.52.56.197","Mozilla/5.0 (Macintosh; Intel Mac OS X 10_15_7) AppleWebKit/537.36 (KHTML, like Gecko) Chrome/100.0.4896.60 Safari/537.36","Macintosh","Chrome","100.0.4896.60","OS X","10_15_7","null","null","","","
                        <div class=orange>
                        <div class=""centered"">
                            <p style=""font-size: 24px""><b>53%</b></p>
                        </div>","O_4_3_P",""
"","","","","","html-keyboard-response","163","376580","0.0-2.0-9.0-0.0-0.3","20","1","2022-04-02 06:18:56","c79472ad15d8b617a4d57d5bf56a810f","47.52.56.197","Mozilla/5.0 (Macintosh; Intel Mac OS X 10_15_7) AppleWebKit/537.36 (KHTML, like Gecko) Chrome/100.0.4896.60 Safari/537.36","Macintosh","Chrome","100.0.4896.60","OS X","10_15_7","null","null","","","<p style=""font-size:64px;"">+</p>","O_4_3_P",""
"","","","","","html-keyboard-response","164","377834","0.0-2.0-9.0-0.0-1.3","20","1","2022-04-02 06:18:56","c79472ad15d8b617a4d57d5bf56a810f","47.52.56.197","Mozilla/5.0 (Macintosh; Intel Mac OS X 10_15_7) AppleWebKit/537.36 (KHTML, like Gecko) Chrome/100.0.4896.60 Safari/537.36","Macintosh","Chrome","100.0.4896.60","OS X","10_15_7","null","null","","","
                        <div class=pink>
                        <div class=""centered"">
                            <p style=""font-size: 24px""><b>52%</b></p>
                        </div>","O_4_3_P",""
"","","","","","html-keyboard-response","165","378240","0.0-2.0-9.0-0.0-0.4","20","1","2022-04-02 06:18:56","c79472ad15d8b617a4d57d5bf56a810f","47.52.56.197","Mozilla/5.0 (Macintosh; Intel Mac OS X 10_15_7) AppleWebKit/537.36 (KHTML, like Gecko) Chrome/100.0.4896.60 Safari/537.36","Macintosh","Chrome","100.0.4896.60","OS X","10_15_7","null","null","","","<p style=""font-size:64px;"">+</p>","O_4_3_P",""
"","","","","","html-keyboard-response","166","379494","0.0-2.0-9.0-0.0-1.4","20","1","2022-04-02 06:18:56","c79472ad15d8b617a4d57d5bf56a810f","47.52.56.197","Mozilla/5.0 (Macintosh; Intel Mac OS X 10_15_7) AppleWebKit/537.36 (KHTML, like Gecko) Chrome/100.0.4896.60 Safari/537.36","Macintosh","Chrome","100.0.4896.60","OS X","10_15_7","null","null","","","
                        <div class=pink>
                        <div class=""centered"">
                            <p style=""font-size: 24px""><b>52%</b></p>
                        </div>","O_4_3_P",""
"","","","","","html-keyboard-response","167","379901","0.0-2.0-9.0-0.0-0.5","20","1","2022-04-02 06:18:56","c79472ad15d8b617a4d57d5bf56a810f","47.52.56.197","Mozilla/5.0 (Macintosh; Intel Mac OS X 10_15_7) AppleWebKit/537.36 (KHTML, like Gecko) Chrome/100.0.4896.60 Safari/537.36","Macintosh","Chrome","100.0.4896.60","OS X","10_15_7","null","null","","","<p style=""font-size:64px;"">+</p>","O_4_3_P",""
"","","","","","html-keyboard-response","168","381155","0.0-2.0-9.0-0.0-1.5","20","1","2022-04-02 06:18:56","c79472ad15d8b617a4d57d5bf56a810f","47.52.56.197","Mozilla/5.0 (Macintosh; Intel Mac OS X 10_15_7) AppleWebKit/537.36 (KHTML, like Gecko) Chrome/100.0.4896.60 Safari/537.36","Macintosh","Chrome","100.0.4896.60","OS X","10_15_7","null","null","","","
                        <div class=orange>
                        <div class=""centered"">
                            <p style=""font-size: 24px""><b>55%</b></p>
                        </div>","O_4_3_P",""
"","","","","","html-keyboard-response","169","381561","0.0-2.0-9.0-1.0-0.0","20","1","2022-04-02 06:18:56","c79472ad15d8b617a4d57d5bf56a810f","47.52.56.197","Mozilla/5.0 (Macintosh; Intel Mac OS X 10_15_7) AppleWebKit/537.36 (KHTML, like Gecko) Chrome/100.0.4896.60 Safari/537.36","Macintosh","Chrome","100.0.4896.60","OS X","10_15_7","null","null","","","<p style=""font-size:64px;"">+</p>","O_4_3_P",""
"","","","","","html-keyboard-response","170","382815","0.0-2.0-9.0-1.0-1.0","20","1","2022-04-02 06:18:56","c79472ad15d8b617a4d57d5bf56a810f","47.52.56.197","Mozilla/5.0 (Macintosh; Intel Mac OS X 10_15_7) AppleWebKit/537.36 (KHTML, like Gecko) Chrome/100.0.4896.60 Safari/537.36","Macintosh","Chrome","100.0.4896.60","OS X","10_15_7","null","null","","","
                        <div class=""pink"">
                        <div class=""centered"">
                            <p style=""font-size: 24px""><b>50%</b></p>
                        </div>","O_4_3_P",""
"","","","","","html-slider-response","171","387237","0.0-2.0-9.0-2.0","20","1","2022-04-02 06:18:56","c79472ad15d8b617a4d57d5bf56a810f","47.52.56.197","Mozilla/5.0 (Macintosh; Intel Mac OS X 10_15_7) AppleWebKit/537.36 (KHTML, like Gecko) Chrome/100.0.4896.60 Safari/537.36","Macintosh","Chrome","100.0.4896.60","OS X","10_15_7","4420.300000000279","0","","","<div style=""width: 500px; height: 100px;""><p>Place your bid for more information.</p></div>","infoBid","15"
"","","","","","html-keyboard-response","172","387645","0.0-2.0-9.0-3.0-0.0","20","1","2022-04-02 06:18:56","c79472ad15d8b617a4d57d5bf56a810f","47.52.56.197","Mozilla/5.0 (Macintosh; Intel Mac OS X 10_15_7) AppleWebKit/537.36 (KHTML, like Gecko) Chrome/100.0.4896.60 Safari/537.36","Macintosh","Chrome","100.0.4896.60","OS X","10_15_7","null","null","","","<p style=""font-size:64px;"">+</p>","O_4_3_P",""
"","","","","","html-keyboard-response","173","388899","0.0-2.0-9.0-3.0-1.0","20","1","2022-04-02 06:18:56","c79472ad15d8b617a4d57d5bf56a810f","47.52.56.197","Mozilla/5.0 (Macintosh; Intel Mac OS X 10_15_7) AppleWebKit/537.36 (KHTML, like Gecko) Chrome/100.0.4896.60 Safari/537.36","Macintosh","Chrome","100.0.4896.60","OS X","10_15_7","null","null","","","<div class=""grey"">
                <div class=""centered"">
                    <p style=""font-size: 24px""><b>???</b></p>
                </div>","O_4_3_P",""
"","","","","","html-keyboard-response","174","389833","0.0-2.0-9.0-4.0-0.0","20","1","2022-04-02 06:18:56","c79472ad15d8b617a4d57d5bf56a810f","47.52.56.197","Mozilla/5.0 (Macintosh; Intel Mac OS X 10_15_7) AppleWebKit/537.36 (KHTML, like Gecko) Chrome/100.0.4896.60 Safari/537.36","Macintosh","Chrome","100.0.4896.60","OS X","10_15_7","932.7999999998137","f","","","
                      <div class=""row"">

                          <div class=""column"">
                              <div class=""orange""></div>
                              <div class=""leftChoiceText"">
                                  <p style=""font-size: 32px""><b>F</b></p>
                              </div>
                          </div>

                          <div class=""column"">
                              <div class=""pink""></div>
                              <div class=""rightChoiceText"">
                                  <p style=""font-size: 32px""><b>J</b></p>
                              </div>
                          </div>

                      </div>

                      <div class=""centeredTop"">
                          Which colour do you<br>
                          predict will win?
                      </div>","O_4_3_P",""
"","","","","","html-keyboard-response","175","391337","0.0-2.0-9.0-4.0-1.0","20","1","2022-04-02 06:18:56","c79472ad15d8b617a4d57d5bf56a810f","47.52.56.197","Mozilla/5.0 (Macintosh; Intel Mac OS X 10_15_7) AppleWebKit/537.36 (KHTML, like Gecko) Chrome/100.0.4896.60 Safari/537.36","Macintosh","Chrome","100.0.4896.60","OS X","10_15_7","null","null","","","<p style=""font-size:64px;"">+</p>","O_4_3_P",""
"","","","","","html-keyboard-response","176","391743","0.0-2.0-10.0-0.0-0.0","20","1","2022-04-02 06:18:56","c79472ad15d8b617a4d57d5bf56a810f","47.52.56.197","Mozilla/5.0 (Macintosh; Intel Mac OS X 10_15_7) AppleWebKit/537.36 (KHTML, like Gecko) Chrome/100.0.4896.60 Safari/537.36","Macintosh","Chrome","100.0.4896.60","OS X","10_15_7","null","null","","","<p style=""font-size:64px;"">+</p>","P_4_5_O",""
"","","","","","html-keyboard-response","177","392997","0.0-2.0-10.0-0.0-1.0","20","1","2022-04-02 06:18:56","c79472ad15d8b617a4d57d5bf56a810f","47.52.56.197","Mozilla/5.0 (Macintosh; Intel Mac OS X 10_15_7) AppleWebKit/537.36 (KHTML, like Gecko) Chrome/100.0.4896.60 Safari/537.36","Macintosh","Chrome","100.0.4896.60","OS X","10_15_7","null","null","","","
                        <div class=pink>
                        <div class=""centered"">
                            <p style=""font-size: 24px""><b>55%</b></p>
                        </div>","P_4_5_O",""
"","","","","","html-keyboard-response","178","393403","0.0-2.0-10.0-0.0-0.1","20","1","2022-04-02 06:18:56","c79472ad15d8b617a4d57d5bf56a810f","47.52.56.197","Mozilla/5.0 (Macintosh; Intel Mac OS X 10_15_7) AppleWebKit/537.36 (KHTML, like Gecko) Chrome/100.0.4896.60 Safari/537.36","Macintosh","Chrome","100.0.4896.60","OS X","10_15_7","null","null","","","<p style=""font-size:64px;"">+</p>","P_4_5_O",""
"","","","","","html-keyboard-response","179","394657","0.0-2.0-10.0-0.0-1.1","20","1","2022-04-02 06:18:56","c79472ad15d8b617a4d57d5bf56a810f","47.52.56.197","Mozilla/5.0 (Macintosh; Intel Mac OS X 10_15_7) AppleWebKit/537.36 (KHTML, like Gecko) Chrome/100.0.4896.60 Safari/537.36","Macintosh","Chrome","100.0.4896.60","OS X","10_15_7","null","null","","","
                        <div class=orange>
                        <div class=""centered"">
                            <p style=""font-size: 24px""><b>53%</b></p>
                        </div>","P_4_5_O",""
"","","","","","html-keyboard-response","180","395064","0.0-2.0-10.0-0.0-0.2","20","1","2022-04-02 06:18:56","c79472ad15d8b617a4d57d5bf56a810f","47.52.56.197","Mozilla/5.0 (Macintosh; Intel Mac OS X 10_15_7) AppleWebKit/537.36 (KHTML, like Gecko) Chrome/100.0.4896.60 Safari/537.36","Macintosh","Chrome","100.0.4896.60","OS X","10_15_7","null","null","","","<p style=""font-size:64px;"">+</p>","P_4_5_O",""
"","","","","","html-keyboard-response","181","396317","0.0-2.0-10.0-0.0-1.2","20","1","2022-04-02 06:18:56","c79472ad15d8b617a4d57d5bf56a810f","47.52.56.197","Mozilla/5.0 (Macintosh; Intel Mac OS X 10_15_7) AppleWebKit/537.36 (KHTML, like Gecko) Chrome/100.0.4896.60 Safari/537.36","Macintosh","Chrome","100.0.4896.60","OS X","10_15_7","null","null","","","
                        <div class=orange>
                        <div class=""centered"">
                            <p style=""font-size: 24px""><b>52%</b></p>
                        </div>","P_4_5_O",""
"","","","","","html-keyboard-response","182","396724","0.0-2.0-10.0-0.0-0.3","20","1","2022-04-02 06:18:56","c79472ad15d8b617a4d57d5bf56a810f","47.52.56.197","Mozilla/5.0 (Macintosh; Intel Mac OS X 10_15_7) AppleWebKit/537.36 (KHTML, like Gecko) Chrome/100.0.4896.60 Safari/537.36","Macintosh","Chrome","100.0.4896.60","OS X","10_15_7","null","null","","","<p style=""font-size:64px;"">+</p>","P_4_5_O",""
"","","","","","html-keyboard-response","183","397978","0.0-2.0-10.0-0.0-1.3","20","1","2022-04-02 06:18:56","c79472ad15d8b617a4d57d5bf56a810f","47.52.56.197","Mozilla/5.0 (Macintosh; Intel Mac OS X 10_15_7) AppleWebKit/537.36 (KHTML, like Gecko) Chrome/100.0.4896.60 Safari/537.36","Macintosh","Chrome","100.0.4896.60","OS X","10_15_7","null","null","","","
                        <div class=pink>
                        <div class=""centered"">
                            <p style=""font-size: 24px""><b>54%</b></p>
                        </div>","P_4_5_O",""
"","","","","","html-keyboard-response","184","398381","0.0-2.0-10.0-0.0-0.4","20","1","2022-04-02 06:18:56","c79472ad15d8b617a4d57d5bf56a810f","47.52.56.197","Mozilla/5.0 (Macintosh; Intel Mac OS X 10_15_7) AppleWebKit/537.36 (KHTML, like Gecko) Chrome/100.0.4896.60 Safari/537.36","Macintosh","Chrome","100.0.4896.60","OS X","10_15_7","null","null","","","<p style=""font-size:64px;"">+</p>","P_4_5_O",""
"","","","","","html-keyboard-response","185","399638","0.0-2.0-10.0-0.0-1.4","20","1","2022-04-02 06:18:56","c79472ad15d8b617a4d57d5bf56a810f","47.52.56.197","Mozilla/5.0 (Macintosh; Intel Mac OS X 10_15_7) AppleWebKit/537.36 (KHTML, like Gecko) Chrome/100.0.4896.60 Safari/537.36","Macintosh","Chrome","100.0.4896.60","OS X","10_15_7","null","null","","","
                        <div class=orange>
                        <div class=""centered"">
                            <p style=""font-size: 24px""><b>53%</b></p>
                        </div>","P_4_5_O",""
"","","","","","html-keyboard-response","186","400044","0.0-2.0-10.0-0.0-0.5","20","1","2022-04-02 06:18:56","c79472ad15d8b617a4d57d5bf56a810f","47.52.56.197","Mozilla/5.0 (Macintosh; Intel Mac OS X 10_15_7) AppleWebKit/537.36 (KHTML, like Gecko) Chrome/100.0.4896.60 Safari/537.36","Macintosh","Chrome","100.0.4896.60","OS X","10_15_7","null","null","","","<p style=""font-size:64px;"">+</p>","P_4_5_O",""
"","","","","","html-keyboard-response","187","401298","0.0-2.0-10.0-0.0-1.5","20","1","2022-04-02 06:18:56","c79472ad15d8b617a4d57d5bf56a810f","47.52.56.197","Mozilla/5.0 (Macintosh; Intel Mac OS X 10_15_7) AppleWebKit/537.36 (KHTML, like Gecko) Chrome/100.0.4896.60 Safari/537.36","Macintosh","Chrome","100.0.4896.60","OS X","10_15_7","null","null","","","
                        <div class=pink>
                        <div class=""centered"">
                            <p style=""font-size: 24px""><b>53%</b></p>
                        </div>","P_4_5_O",""
"","","","","","html-keyboard-response","188","401705","0.0-2.0-10.0-1.0-0.0","20","1","2022-04-02 06:18:56","c79472ad15d8b617a4d57d5bf56a810f","47.52.56.197","Mozilla/5.0 (Macintosh; Intel Mac OS X 10_15_7) AppleWebKit/537.36 (KHTML, like Gecko) Chrome/100.0.4896.60 Safari/537.36","Macintosh","Chrome","100.0.4896.60","OS X","10_15_7","null","null","","","<p style=""font-size:64px;"">+</p>","P_4_5_O",""
"","","","","","html-keyboard-response","189","402959","0.0-2.0-10.0-1.0-1.0","20","1","2022-04-02 06:18:56","c79472ad15d8b617a4d57d5bf56a810f","47.52.56.197","Mozilla/5.0 (Macintosh; Intel Mac OS X 10_15_7) AppleWebKit/537.36 (KHTML, like Gecko) Chrome/100.0.4896.60 Safari/537.36","Macintosh","Chrome","100.0.4896.60","OS X","10_15_7","null","null","","","
                        <div class=""orange"">
                        <div class=""centered"">
                            <p style=""font-size: 24px""><b>50%</b></p>
                        </div>","P_4_5_O",""
"","","","","","html-slider-response","190","405988","0.0-2.0-10.0-2.0","20","1","2022-04-02 06:18:56","c79472ad15d8b617a4d57d5bf56a810f","47.52.56.197","Mozilla/5.0 (Macintosh; Intel Mac OS X 10_15_7) AppleWebKit/537.36 (KHTML, like Gecko) Chrome/100.0.4896.60 Safari/537.36","Macintosh","Chrome","100.0.4896.60","OS X","10_15_7","3027","15","","","<div style=""width: 500px; height: 100px;""><p>Place your bid for more information.</p></div>","infoBid","24"
"","","","","","html-keyboard-response","191","406394","0.0-2.0-10.0-3.0-0.0","20","1","2022-04-02 06:18:56","c79472ad15d8b617a4d57d5bf56a810f","47.52.56.197","Mozilla/5.0 (Macintosh; Intel Mac OS X 10_15_7) AppleWebKit/537.36 (KHTML, like Gecko) Chrome/100.0.4896.60 Safari/537.36","Macintosh","Chrome","100.0.4896.60","OS X","10_15_7","null","null","","","<p style=""font-size:64px;"">+</p>","P_4_5_O",""
"","","","","","html-keyboard-response","192","407649","0.0-2.0-10.0-3.0-1.0","20","1","2022-04-02 06:18:56","c79472ad15d8b617a4d57d5bf56a810f","47.52.56.197","Mozilla/5.0 (Macintosh; Intel Mac OS X 10_15_7) AppleWebKit/537.36 (KHTML, like Gecko) Chrome/100.0.4896.60 Safari/537.36","Macintosh","Chrome","100.0.4896.60","OS X","10_15_7","null","null","","","<div class=""grey"">
                <div class=""centered"">
