"success","timeout","failed_images","failed_audio","failed_video","trial_type","trial_index","time_elapsed","internal_node_id","run_id","condition","recorded_at","source_code_version","ip","user_agent","device","browser","browser_version","platform","platform_version","rt","response","question_order","view_history","stimulus","trial_name","slider_start"
"true","false","[]","[]","[]","preload","0","23","0.0-0.0","44","1","2022-04-05 13:32:14","c79472ad15d8b617a4d57d5bf56a810f","125.63.20.238","Mozilla/5.0 (Macintosh; Intel Mac OS X 10_15_7) AppleWebKit/537.36 (KHTML, like Gecko) Chrome/99.0.4844.83 Safari/537.36","Macintosh","Chrome","99.0.4844.83","OS X","10_15_7","","","","","","",""
"","","","","","survey-multi-choice","1","65131","0.0-1.0-0.0","44","1","2022-04-05 13:32:14","c79472ad15d8b617a4d57d5bf56a810f","125.63.20.238","Mozilla/5.0 (Macintosh; Intel Mac OS X 10_15_7) AppleWebKit/537.36 (KHTML, like Gecko) Chrome/99.0.4844.83 Safari/537.36","Macintosh","Chrome","99.0.4844.83","OS X","10_15_7","65105.30000001192","{""Gender"":""Male""}","[0]","","","",""
"","","","","","survey-text","2","67364","0.0-1.0-1.0","44","1","2022-04-05 13:32:14","c79472ad15d8b617a4d57d5bf56a810f","125.63.20.238","Mozilla/5.0 (Macintosh; Intel Mac OS X 10_15_7) AppleWebKit/537.36 (KHTML, like Gecko) Chrome/99.0.4844.83 Safari/537.36","Macintosh","Chrome","99.0.4844.83","OS X","10_15_7","2223.2000000476837","{""Age"":""25""}","","","","",""
"","","","","","instructions","3","178788","0.0-1.0-2.0","44","1","2022-04-05 13:32:14","c79472ad15d8b617a4d57d5bf56a810f","125.63.20.238","Mozilla/5.0 (Macintosh; Intel Mac OS X 10_15_7) AppleWebKit/537.36 (KHTML, like Gecko) Chrome/99.0.4844.83 Safari/537.36","Macintosh","Chrome","99.0.4844.83","OS X","10_15_7","111420.30000001192","","","[{""page_index"":0,""viewing_time"":55664.200000047684},{""page_index"":1,""viewing_time"":8007.799999952316},{""page_index"":2,""viewing_time"":13304.600000023842},{""page_index"":3,""viewing_time"":5189.5},{""page_index"":2,""viewing_time"":4261.100000023842},{""page_index"":3,""viewing_time"":1036.3999999761581},{""page_index"":4,""viewing_time"":6658.699999988079},{""page_index"":5,""viewing_time"":1963.1000000238419},{""page_index"":6,""viewing_time"":1065.800000011921},{""page_index"":7,""viewing_time"":1291.5999999642372},{""page_index"":8,""viewing_time"":764.1999999880791},{""page_index"":9,""viewing_time"":4800},{""page_index"":10,""viewing_time"":904.3000000119209},{""page_index"":11,""viewing_time"":2380.699999988079},{""page_index"":12,""viewing_time"":750.4000000357628},{""page_index"":13,""viewing_time"":3373.800000011921}]","","",""
"","","","","","html-keyboard-response","4","179194","0.0-2.0-0.0-0.0-0.0","44","1","2022-04-05 13:32:14","c79472ad15d8b617a4d57d5bf56a810f","125.63.20.238","Mozilla/5.0 (Macintosh; Intel Mac OS X 10_15_7) AppleWebKit/537.36 (KHTML, like Gecko) Chrome/99.0.4844.83 Safari/537.36","Macintosh","Chrome","99.0.4844.83","OS X","10_15_7","null","null","","","<p style=""font-size:64px;"">+</p>","P_2_6_P",""
"","","","","","html-keyboard-response","5","180452","0.0-2.0-0.0-0.0-1.0","44","1","2022-04-05 13:32:14","c79472ad15d8b617a4d57d5bf56a810f","125.63.20.238","Mozilla/5.0 (Macintosh; Intel Mac OS X 10_15_7) AppleWebKit/537.36 (KHTML, like Gecko) Chrome/99.0.4844.83 Safari/537.36","Macintosh","Chrome","99.0.4844.83","OS X","10_15_7","null","null","","","
                        <div class=pink>
                        <div class=""centered"">
                            <p style=""font-size: 24px""><b>51%</b></p>
                        </div>","P_2_6_P",""
"","","","","","html-keyboard-response","6","180861","0.0-2.0-0.0-0.0-0.1","44","1","2022-04-05 13:32:14","c79472ad15d8b617a4d57d5bf56a810f","125.63.20.238","Mozilla/5.0 (Macintosh; Intel Mac OS X 10_15_7) AppleWebKit/537.36 (KHTML, like Gecko) Chrome/99.0.4844.83 Safari/537.36","Macintosh","Chrome","99.0.4844.83","OS X","10_15_7","null","null","","","<p style=""font-size:64px;"">+</p>","P_2_6_P",""
"","","","","","html-keyboard-response","7","182121","0.0-2.0-0.0-0.0-1.1","44","1","2022-04-05 13:32:14","c79472ad15d8b617a4d57d5bf56a810f","125.63.20.238","Mozilla/5.0 (Macintosh; Intel Mac OS X 10_15_7) AppleWebKit/537.36 (KHTML, like Gecko) Chrome/99.0.4844.83 Safari/537.36","Macintosh","Chrome","99.0.4844.83","OS X","10_15_7","null","null","","","
                        <div class=pink>
                        <div class=""centered"">
                            <p style=""font-size: 24px""><b>55%</b></p>
                        </div>","P_2_6_P",""
"","","","","","html-keyboard-response","8","182527","0.0-2.0-0.0-0.0-0.2","44","1","2022-04-05 13:32:14","c79472ad15d8b617a4d57d5bf56a810f","125.63.20.238","Mozilla/5.0 (Macintosh; Intel Mac OS X 10_15_7) AppleWebKit/537.36 (KHTML, like Gecko) Chrome/99.0.4844.83 Safari/537.36","Macintosh","Chrome","99.0.4844.83","OS X","10_15_7","null","null","","","<p style=""font-size:64px;"">+</p>","P_2_6_P",""
"","","","","","html-keyboard-response","9","183786","0.0-2.0-0.0-0.0-1.2","44","1","2022-04-05 13:32:14","c79472ad15d8b617a4d57d5bf56a810f","125.63.20.238","Mozilla/5.0 (Macintosh; Intel Mac OS X 10_15_7) AppleWebKit/537.36 (KHTML, like Gecko) Chrome/99.0.4844.83 Safari/537.36","Macintosh","Chrome","99.0.4844.83","OS X","10_15_7","null","null","","","
                        <div class=pink>
                        <div class=""centered"">
                            <p style=""font-size: 24px""><b>55%</b></p>
                        </div>","P_2_6_P",""
"","","","","","html-keyboard-response","10","184194","0.0-2.0-0.0-0.0-0.3","44","1","2022-04-05 13:32:14","c79472ad15d8b617a4d57d5bf56a810f","125.63.20.238","Mozilla/5.0 (Macintosh; Intel Mac OS X 10_15_7) AppleWebKit/537.36 (KHTML, like Gecko) Chrome/99.0.4844.83 Safari/537.36","Macintosh","Chrome","99.0.4844.83","OS X","10_15_7","null","null","","","<p style=""font-size:64px;"">+</p>","P_2_6_P",""
"","","","","","html-keyboard-response","11","185452","0.0-2.0-0.0-0.0-1.3","44","1","2022-04-05 13:32:14","c79472ad15d8b617a4d57d5bf56a810f","125.63.20.238","Mozilla/5.0 (Macintosh; Intel Mac OS X 10_15_7) AppleWebKit/537.36 (KHTML, like Gecko) Chrome/99.0.4844.83 Safari/537.36","Macintosh","Chrome","99.0.4844.83","OS X","10_15_7","null","null","","","
                        <div class=orange>
                        <div class=""centered"">
                            <p style=""font-size: 24px""><b>53%</b></p>
                        </div>","P_2_6_P",""
"","","","","","html-keyboard-response","12","185861","0.0-2.0-0.0-0.0-0.4","44","1","2022-04-05 13:32:14","c79472ad15d8b617a4d57d5bf56a810f","125.63.20.238","Mozilla/5.0 (Macintosh; Intel Mac OS X 10_15_7) AppleWebKit/537.36 (KHTML, like Gecko) Chrome/99.0.4844.83 Safari/537.36","Macintosh","Chrome","99.0.4844.83","OS X","10_15_7","null","null","","","<p style=""font-size:64px;"">+</p>","P_2_6_P",""
"","","","","","html-keyboard-response","13","187117","0.0-2.0-0.0-0.0-1.4","44","1","2022-04-05 13:32:14","c79472ad15d8b617a4d57d5bf56a810f","125.63.20.238","Mozilla/5.0 (Macintosh; Intel Mac OS X 10_15_7) AppleWebKit/537.36 (KHTML, like Gecko) Chrome/99.0.4844.83 Safari/537.36","Macintosh","Chrome","99.0.4844.83","OS X","10_15_7","null","null","","","
                        <div class=orange>
                        <div class=""centered"">
                            <p style=""font-size: 24px""><b>54%</b></p>
                        </div>","P_2_6_P",""
"","","","","","html-keyboard-response","14","187521","0.0-2.0-0.0-0.0-0.5","44","1","2022-04-05 13:32:14","c79472ad15d8b617a4d57d5bf56a810f","125.63.20.238","Mozilla/5.0 (Macintosh; Intel Mac OS X 10_15_7) AppleWebKit/537.36 (KHTML, like Gecko) Chrome/99.0.4844.83 Safari/537.36","Macintosh","Chrome","99.0.4844.83","OS X","10_15_7","null","null","","","<p style=""font-size:64px;"">+</p>","P_2_6_P",""
"","","","","","html-keyboard-response","15","188778","0.0-2.0-0.0-0.0-1.5","44","1","2022-04-05 13:32:14","c79472ad15d8b617a4d57d5bf56a810f","125.63.20.238","Mozilla/5.0 (Macintosh; Intel Mac OS X 10_15_7) AppleWebKit/537.36 (KHTML, like Gecko) Chrome/99.0.4844.83 Safari/537.36","Macintosh","Chrome","99.0.4844.83","OS X","10_15_7","null","null","","","
                        <div class=orange>
                        <div class=""centered"">
                            <p style=""font-size: 24px""><b>52%</b></p>
                        </div>","P_2_6_P",""
"","","","","","html-keyboard-response","16","189185","0.0-2.0-0.0-1.0-0.0","44","1","2022-04-05 13:32:14","c79472ad15d8b617a4d57d5bf56a810f","125.63.20.238","Mozilla/5.0 (Macintosh; Intel Mac OS X 10_15_7) AppleWebKit/537.36 (KHTML, like Gecko) Chrome/99.0.4844.83 Safari/537.36","Macintosh","Chrome","99.0.4844.83","OS X","10_15_7","null","null","","","<p style=""font-size:64px;"">+</p>","P_2_6_P",""
"","","","","","html-keyboard-response","17","190444","0.0-2.0-0.0-1.0-1.0","44","1","2022-04-05 13:32:14","c79472ad15d8b617a4d57d5bf56a810f","125.63.20.238","Mozilla/5.0 (Macintosh; Intel Mac OS X 10_15_7) AppleWebKit/537.36 (KHTML, like Gecko) Chrome/99.0.4844.83 Safari/537.36","Macintosh","Chrome","99.0.4844.83","OS X","10_15_7","null","null","","","
                        <div class=""pink"">
                        <div class=""centered"">
                            <p style=""font-size: 24px""><b>50%</b></p>
                        </div>","P_2_6_P",""
"","","","","","html-slider-response","18","192628","0.0-2.0-0.0-2.0","44","1","2022-04-05 13:32:14","c79472ad15d8b617a4d57d5bf56a810f","125.63.20.238","Mozilla/5.0 (Macintosh; Intel Mac OS X 10_15_7) AppleWebKit/537.36 (KHTML, like Gecko) Chrome/99.0.4844.83 Safari/537.36","Macintosh","Chrome","99.0.4844.83","OS X","10_15_7","2178.400000035763","41","","","<div style=""width: 500px; height: 100px;""><p>Place your bid for more information.</p></div>","infoBid","28"
"","","","","","html-keyboard-response","19","193035","0.0-2.0-0.0-3.0-0.0","44","1","2022-04-05 13:32:14","c79472ad15d8b617a4d57d5bf56a810f","125.63.20.238","Mozilla/5.0 (Macintosh; Intel Mac OS X 10_15_7) AppleWebKit/537.36 (KHTML, like Gecko) Chrome/99.0.4844.83 Safari/537.36","Macintosh","Chrome","99.0.4844.83","OS X","10_15_7","null","null","","","<p style=""font-size:64px;"">+</p>","P_2_6_P",""
"","","","","","html-keyboard-response","20","194294","0.0-2.0-0.0-3.0-1.0","44","1","2022-04-05 13:32:14","c79472ad15d8b617a4d57d5bf56a810f","125.63.20.238","Mozilla/5.0 (Macintosh; Intel Mac OS X 10_15_7) AppleWebKit/537.36 (KHTML, like Gecko) Chrome/99.0.4844.83 Safari/537.36","Macintosh","Chrome","99.0.4844.83","OS X","10_15_7","null","null","","","<div class=pink>
                <div class=""centered"">
                    <p style=""font-size: 24px""><b>51%</b></p>
                </div>","P_2_6_P",""
"","","","","","html-keyboard-response","21","197136","0.0-2.0-0.0-4.0-0.0","44","1","2022-04-05 13:32:14","c79472ad15d8b617a4d57d5bf56a810f","125.63.20.238","Mozilla/5.0 (Macintosh; Intel Mac OS X 10_15_7) AppleWebKit/537.36 (KHTML, like Gecko) Chrome/99.0.4844.83 Safari/537.36","Macintosh","Chrome","99.0.4844.83","OS X","10_15_7","2837.399999976158","f","","","
                      <div class=""row"">

                          <div class=""column"">
                              <div class=""orange""></div>
                              <div class=""leftChoiceText"">
                                  <p style=""font-size: 32px""><b>F</b></p>
                              </div>
                          </div>

                          <div class=""column"">
                              <div class=""pink""></div>
                              <div class=""rightChoiceText"">
                                  <p style=""font-size: 32px""><b>J</b></p>
                              </div>
                          </div>

                      </div>

                      <div class=""centeredTop"">
                          Which colour do you<br>
                          predict will win?
                      </div>","P_2_6_P",""
"","","","","","html-keyboard-response","22","198643","0.0-2.0-0.0-4.0-1.0","44","1","2022-04-05 13:32:14","c79472ad15d8b617a4d57d5bf56a810f","125.63.20.238","Mozilla/5.0 (Macintosh; Intel Mac OS X 10_15_7) AppleWebKit/537.36 (KHTML, like Gecko) Chrome/99.0.4844.83 Safari/537.36","Macintosh","Chrome","99.0.4844.83","OS X","10_15_7","null","null","","","<p style=""font-size:64px;"">+</p>","P_2_6_P",""
"","","","","","html-keyboard-response","23","199052","0.0-2.0-1.0-0.0-0.0","44","1","2022-04-05 13:32:14","c79472ad15d8b617a4d57d5bf56a810f","125.63.20.238","Mozilla/5.0 (Macintosh; Intel Mac OS X 10_15_7) AppleWebKit/537.36 (KHTML, like Gecko) Chrome/99.0.4844.83 Safari/537.36","Macintosh","Chrome","99.0.4844.83","OS X","10_15_7","null","null","","","<p style=""font-size:64px;"">+</p>","O_4_4_O",""
"","","","","","html-keyboard-response","24","200309","0.0-2.0-1.0-0.0-1.0","44","1","2022-04-05 13:32:14","c79472ad15d8b617a4d57d5bf56a810f","125.63.20.238","Mozilla/5.0 (Macintosh; Intel Mac OS X 10_15_7) AppleWebKit/537.36 (KHTML, like Gecko) Chrome/99.0.4844.83 Safari/537.36","Macintosh","Chrome","99.0.4844.83","OS X","10_15_7","null","null","","","
                        <div class=orange>
                        <div class=""centered"">
                            <p style=""font-size: 24px""><b>54%</b></p>
                        </div>","O_4_4_O",""
"","","","","","html-keyboard-response","25","200716","0.0-2.0-1.0-0.0-0.1","44","1","2022-04-05 13:32:14","c79472ad15d8b617a4d57d5bf56a810f","125.63.20.238","Mozilla/5.0 (Macintosh; Intel Mac OS X 10_15_7) AppleWebKit/537.36 (KHTML, like Gecko) Chrome/99.0.4844.83 Safari/537.36","Macintosh","Chrome","99.0.4844.83","OS X","10_15_7","null","null","","","<p style=""font-size:64px;"">+</p>","O_4_4_O",""
"","","","","","html-keyboard-response","26","201971","0.0-2.0-1.0-0.0-1.1","44","1","2022-04-05 13:32:14","c79472ad15d8b617a4d57d5bf56a810f","125.63.20.238","Mozilla/5.0 (Macintosh; Intel Mac OS X 10_15_7) AppleWebKit/537.36 (KHTML, like Gecko) Chrome/99.0.4844.83 Safari/537.36","Macintosh","Chrome","99.0.4844.83","OS X","10_15_7","null","null","","","
                        <div class=orange>
                        <div class=""centered"">
                            <p style=""font-size: 24px""><b>54%</b></p>
                        </div>","O_4_4_O",""
"","","","","","html-keyboard-response","27","202377","0.0-2.0-1.0-0.0-0.2","44","1","2022-04-05 13:32:14","c79472ad15d8b617a4d57d5bf56a810f","125.63.20.238","Mozilla/5.0 (Macintosh; Intel Mac OS X 10_15_7) AppleWebKit/537.36 (KHTML, like Gecko) Chrome/99.0.4844.83 Safari/537.36","Macintosh","Chrome","99.0.4844.83","OS X","10_15_7","null","null","","","<p style=""font-size:64px;"">+</p>","O_4_4_O",""
"","","","","","html-keyboard-response","28","203636","0.0-2.0-1.0-0.0-1.2","44","1","2022-04-05 13:32:14","c79472ad15d8b617a4d57d5bf56a810f","125.63.20.238","Mozilla/5.0 (Macintosh; Intel Mac OS X 10_15_7) AppleWebKit/537.36 (KHTML, like Gecko) Chrome/99.0.4844.83 Safari/537.36","Macintosh","Chrome","99.0.4844.83","OS X","10_15_7","null","null","","","
                        <div class=pink>
                        <div class=""centered"">
                            <p style=""font-size: 24px""><b>52%</b></p>
                        </div>","O_4_4_O",""
"","","","","","html-keyboard-response","29","204044","0.0-2.0-1.0-0.0-0.3","44","1","2022-04-05 13:32:14","c79472ad15d8b617a4d57d5bf56a810f","125.63.20.238","Mozilla/5.0 (Macintosh; Intel Mac OS X 10_15_7) AppleWebKit/537.36 (KHTML, like Gecko) Chrome/99.0.4844.83 Safari/537.36","Macintosh","Chrome","99.0.4844.83","OS X","10_15_7","null","null","","","<p style=""font-size:64px;"">+</p>","O_4_4_O",""
"","","","","","html-keyboard-response","30","205302","0.0-2.0-1.0-0.0-1.3","44","1","2022-04-05 13:32:14","c79472ad15d8b617a4d57d5bf56a810f","125.63.20.238","Mozilla/5.0 (Macintosh; Intel Mac OS X 10_15_7) AppleWebKit/537.36 (KHTML, like Gecko) Chrome/99.0.4844.83 Safari/537.36","Macintosh","Chrome","99.0.4844.83","OS X","10_15_7","null","null","","","
                        <div class=pink>
                        <div class=""centered"">
                            <p style=""font-size: 24px""><b>52%</b></p>
                        </div>","O_4_4_O",""
"","","","","","html-keyboard-response","31","205712","0.0-2.0-1.0-0.0-0.4","44","1","2022-04-05 13:32:14","c79472ad15d8b617a4d57d5bf56a810f","125.63.20.238","Mozilla/5.0 (Macintosh; Intel Mac OS X 10_15_7) AppleWebKit/537.36 (KHTML, like Gecko) Chrome/99.0.4844.83 Safari/537.36","Macintosh","Chrome","99.0.4844.83","OS X","10_15_7","null","null","","","<p style=""font-size:64px;"">+</p>","O_4_4_O",""
"","","","","","html-keyboard-response","32","206970","0.0-2.0-1.0-0.0-1.4","44","1","2022-04-05 13:32:14","c79472ad15d8b617a4d57d5bf56a810f","125.63.20.238","Mozilla/5.0 (Macintosh; Intel Mac OS X 10_15_7) AppleWebKit/537.36 (KHTML, like Gecko) Chrome/99.0.4844.83 Safari/537.36","Macintosh","Chrome","99.0.4844.83","OS X","10_15_7","null","null","","","
                        <div class=orange>
                        <div class=""centered"">
                            <p style=""font-size: 24px""><b>55%</b></p>
                        </div>","O_4_4_O",""
"","","","","","html-keyboard-response","33","207377","0.0-2.0-1.0-0.0-0.5","44","1","2022-04-05 13:32:14","c79472ad15d8b617a4d57d5bf56a810f","125.63.20.238","Mozilla/5.0 (Macintosh; Intel Mac OS X 10_15_7) AppleWebKit/537.36 (KHTML, like Gecko) Chrome/99.0.4844.83 Safari/537.36","Macintosh","Chrome","99.0.4844.83","OS X","10_15_7","null","null","","","<p style=""font-size:64px;"">+</p>","O_4_4_O",""
"","","","","","html-keyboard-response","34","208637","0.0-2.0-1.0-0.0-1.5","44","1","2022-04-05 13:32:14","c79472ad15d8b617a4d57d5bf56a810f","125.63.20.238","Mozilla/5.0 (Macintosh; Intel Mac OS X 10_15_7) AppleWebKit/537.36 (KHTML, like Gecko) Chrome/99.0.4844.83 Safari/537.36","Macintosh","Chrome","99.0.4844.83","OS X","10_15_7","null","null","","","
                        <div class=pink>
                        <div class=""centered"">
                            <p style=""font-size: 24px""><b>55%</b></p>
                        </div>","O_4_4_O",""
"","","","","","html-keyboard-response","35","209043","0.0-2.0-1.0-1.0-0.0","44","1","2022-04-05 13:32:14","c79472ad15d8b617a4d57d5bf56a810f","125.63.20.238","Mozilla/5.0 (Macintosh; Intel Mac OS X 10_15_7) AppleWebKit/537.36 (KHTML, like Gecko) Chrome/99.0.4844.83 Safari/537.36","Macintosh","Chrome","99.0.4844.83","OS X","10_15_7","null","null","","","<p style=""font-size:64px;"">+</p>","O_4_4_O",""
"","","","","","html-keyboard-response","36","210301","0.0-2.0-1.0-1.0-1.0","44","1","2022-04-05 13:32:14","c79472ad15d8b617a4d57d5bf56a810f","125.63.20.238","Mozilla/5.0 (Macintosh; Intel Mac OS X 10_15_7) AppleWebKit/537.36 (KHTML, like Gecko) Chrome/99.0.4844.83 Safari/537.36","Macintosh","Chrome","99.0.4844.83","OS X","10_15_7","null","null","","","
                        <div class=""orange"">
                        <div class=""centered"">
                            <p style=""font-size: 24px""><b>50%</b></p>
                        </div>","O_4_4_O",""
"","","","","","html-slider-response","37","212503","0.0-2.0-1.0-2.0","44","1","2022-04-05 13:32:14","c79472ad15d8b617a4d57d5bf56a810f","125.63.20.238","Mozilla/5.0 (Macintosh; Intel Mac OS X 10_15_7) AppleWebKit/537.36 (KHTML, like Gecko) Chrome/99.0.4844.83 Safari/537.36","Macintosh","Chrome","99.0.4844.83","OS X","10_15_7","2199.399999976158","35","","","<div style=""width: 500px; height: 100px;""><p>Place your bid for more information.</p></div>","infoBid","15"
"","","","","","html-keyboard-response","38","212909","0.0-2.0-1.0-3.0-0.0","44","1","2022-04-05 13:32:14","c79472ad15d8b617a4d57d5bf56a810f","125.63.20.238","Mozilla/5.0 (Macintosh; Intel Mac OS X 10_15_7) AppleWebKit/537.36 (KHTML, like Gecko) Chrome/99.0.4844.83 Safari/537.36","Macintosh","Chrome","99.0.4844.83","OS X","10_15_7","null","null","","","<p style=""font-size:64px;"">+</p>","O_4_4_O",""
"","","","","","html-keyboard-response","39","214163","0.0-2.0-1.0-3.0-1.0","44","1","2022-04-05 13:32:14","c79472ad15d8b617a4d57d5bf56a810f","125.63.20.238","Mozilla/5.0 (Macintosh; Intel Mac OS X 10_15_7) AppleWebKit/537.36 (KHTML, like Gecko) Chrome/99.0.4844.83 Safari/537.36","Macintosh","Chrome","99.0.4844.83","OS X","10_15_7","null","null","","","<div class=orange>
                <div class=""centered"">
                    <p style=""font-size: 24px""><b>51%</b></p>
                </div>","O_4_4_O",""
"","","","","","html-keyboard-response","40","215013","0.0-2.0-1.0-4.0-0.0","44","1","2022-04-05 13:32:14","c79472ad15d8b617a4d57d5bf56a810f","125.63.20.238","Mozilla/5.0 (Macintosh; Intel Mac OS X 10_15_7) AppleWebKit/537.36 (KHTML, like Gecko) Chrome/99.0.4844.83 Safari/537.36","Macintosh","Chrome","99.0.4844.83","OS X","10_15_7","845.5","f","","","
                      <div class=""row"">

                          <div class=""column"">
                              <div class=""orange""></div>
                              <div class=""leftChoiceText"">
                                  <p style=""font-size: 32px""><b>F</b></p>
                              </div>
                          </div>

                          <div class=""column"">
                              <div class=""pink""></div>
                              <div class=""rightChoiceText"">
                                  <p style=""font-size: 32px""><b>J</b></p>
                              </div>
                          </div>

                      </div>

                      <div class=""centeredTop"">
                          Which colour do you<br>
                          predict will win?
                      </div>","O_4_4_O",""
"","","","","","html-keyboard-response","41","216515","0.0-2.0-1.0-4.0-1.0","44","1","2022-04-05 13:32:14","c79472ad15d8b617a4d57d5bf56a810f","125.63.20.238","Mozilla/5.0 (Macintosh; Intel Mac OS X 10_15_7) AppleWebKit/537.36 (KHTML, like Gecko) Chrome/99.0.4844.83 Safari/537.36","Macintosh","Chrome","99.0.4844.83","OS X","10_15_7","null","null","","","<p style=""font-size:64px;"">+</p>","O_4_4_O",""
"","","","","","html-keyboard-response","42","216918","0.0-2.0-2.0-0.0-0.0","44","1","2022-04-05 13:32:14","c79472ad15d8b617a4d57d5bf56a810f","125.63.20.238","Mozilla/5.0 (Macintosh; Intel Mac OS X 10_15_7) AppleWebKit/537.36 (KHTML, like Gecko) Chrome/99.0.4844.83 Safari/537.36","Macintosh","Chrome","99.0.4844.83","OS X","10_15_7","null","null","","","<p style=""font-size:64px;"">+</p>","O_2_2_O",""
"","","","","","html-keyboard-response","43","218176","0.0-2.0-2.0-0.0-1.0","44","1","2022-04-05 13:32:14","c79472ad15d8b617a4d57d5bf56a810f","125.63.20.238","Mozilla/5.0 (Macintosh; Intel Mac OS X 10_15_7) AppleWebKit/537.36 (KHTML, like Gecko) Chrome/99.0.4844.83 Safari/537.36","Macintosh","Chrome","99.0.4844.83","OS X","10_15_7","null","null","","","
                        <div class=pink>
                        <div class=""centered"">
                            <p style=""font-size: 24px""><b>52%</b></p>
                        </div>","O_2_2_O",""
"","","","","","html-keyboard-response","44","218580","0.0-2.0-2.0-0.0-0.1","44","1","2022-04-05 13:32:14","c79472ad15d8b617a4d57d5bf56a810f","125.63.20.238","Mozilla/5.0 (Macintosh; Intel Mac OS X 10_15_7) AppleWebKit/537.36 (KHTML, like Gecko) Chrome/99.0.4844.83 Safari/537.36","Macintosh","Chrome","99.0.4844.83","OS X","10_15_7","null","null","","","<p style=""font-size:64px;"">+</p>","O_2_2_O",""
"","","","","","html-keyboard-response","45","219835","0.0-2.0-2.0-0.0-1.1","44","1","2022-04-05 13:32:14","c79472ad15d8b617a4d57d5bf56a810f","125.63.20.238","Mozilla/5.0 (Macintosh; Intel Mac OS X 10_15_7) AppleWebKit/537.36 (KHTML, like Gecko) Chrome/99.0.4844.83 Safari/537.36","Macintosh","Chrome","99.0.4844.83","OS X","10_15_7","null","null","","","
                        <div class=pink>
                        <div class=""centered"">
                            <p style=""font-size: 24px""><b>54%</b></p>
                        </div>","O_2_2_O",""
"","","","","","html-keyboard-response","46","220242","0.0-2.0-2.0-0.0-0.2","44","1","2022-04-05 13:32:14","c79472ad15d8b617a4d57d5bf56a810f","125.63.20.238","Mozilla/5.0 (Macintosh; Intel Mac OS X 10_15_7) AppleWebKit/537.36 (KHTML, like Gecko) Chrome/99.0.4844.83 Safari/537.36","Macintosh","Chrome","99.0.4844.83","OS X","10_15_7","null","null","","","<p style=""font-size:64px;"">+</p>","O_2_2_O",""
"","","","","","html-keyboard-response","47","221497","0.0-2.0-2.0-0.0-1.2","44","1","2022-04-05 13:32:14","c79472ad15d8b617a4d57d5bf56a810f","125.63.20.238","Mozilla/5.0 (Macintosh; Intel Mac OS X 10_15_7) AppleWebKit/537.36 (KHTML, like Gecko) Chrome/99.0.4844.83 Safari/537.36","Macintosh","Chrome","99.0.4844.83","OS X","10_15_7","null","null","","","
                        <div class=orange>
                        <div class=""centered"">
                            <p style=""font-size: 24px""><b>52%</b></p>
                        </div>","O_2_2_O",""
"","","","","","html-keyboard-response","48","221905","0.0-2.0-2.0-0.0-0.3","44","1","2022-04-05 13:32:14","c79472ad15d8b617a4d57d5bf56a810f","125.63.20.238","Mozilla/5.0 (Macintosh; Intel Mac OS X 10_15_7) AppleWebKit/537.36 (KHTML, like Gecko) Chrome/99.0.4844.83 Safari/537.36","Macintosh","Chrome","99.0.4844.83","OS X","10_15_7","null","null","","","<p style=""font-size:64px;"">+</p>","O_2_2_O",""
"","","","","","html-keyboard-response","49","223160","0.0-2.0-2.0-0.0-1.3","44","1","2022-04-05 13:32:14","c79472ad15d8b617a4d57d5bf56a810f","125.63.20.238","Mozilla/5.0 (Macintosh; Intel Mac OS X 10_15_7) AppleWebKit/537.36 (KHTML, like Gecko) Chrome/99.0.4844.83 Safari/537.36","Macintosh","Chrome","99.0.4844.83","OS X","10_15_7","null","null","","","
                        <div class=orange>
                        <div class=""centered"">
                            <p style=""font-size: 24px""><b>55%</b></p>
                        </div>","O_2_2_O",""
"","","","","","html-keyboard-response","50","223568","0.0-2.0-2.0-0.0-0.4","44","1","2022-04-05 13:32:14","c79472ad15d8b617a4d57d5bf56a810f","125.63.20.238","Mozilla/5.0 (Macintosh; Intel Mac OS X 10_15_7) AppleWebKit/537.36 (KHTML, like Gecko) Chrome/99.0.4844.83 Safari/537.36","Macintosh","Chrome","99.0.4844.83","OS X","10_15_7","null","null","","","<p style=""font-size:64px;"">+</p>","O_2_2_O",""
"","","","","","html-keyboard-response","51","224822","0.0-2.0-2.0-0.0-1.4","44","1","2022-04-05 13:32:14","c79472ad15d8b617a4d57d5bf56a810f","125.63.20.238","Mozilla/5.0 (Macintosh; Intel Mac OS X 10_15_7) AppleWebKit/537.36 (KHTML, like Gecko) Chrome/99.0.4844.83 Safari/537.36","Macintosh","Chrome","99.0.4844.83","OS X","10_15_7","null","null","","","
                        <div class=pink>
                        <div class=""centered"">
                            <p style=""font-size: 24px""><b>52%</b></p>
                        </div>","O_2_2_O",""
"","","","","","html-keyboard-response","52","225230","0.0-2.0-2.0-0.0-0.5","44","1","2022-04-05 13:32:14","c79472ad15d8b617a4d57d5bf56a810f","125.63.20.238","Mozilla/5.0 (Macintosh; Intel Mac OS X 10_15_7) AppleWebKit/537.36 (KHTML, like Gecko) Chrome/99.0.4844.83 Safari/537.36","Macintosh","Chrome","99.0.4844.83","OS X","10_15_7","null","null","","","<p style=""font-size:64px;"">+</p>","O_2_2_O",""
"","","","","","html-keyboard-response","53","226484","0.0-2.0-2.0-0.0-1.5","44","1","2022-04-05 13:32:14","c79472ad15d8b617a4d57d5bf56a810f","125.63.20.238","Mozilla/5.0 (Macintosh; Intel Mac OS X 10_15_7) AppleWebKit/537.36 (KHTML, like Gecko) Chrome/99.0.4844.83 Safari/537.36","Macintosh","Chrome","99.0.4844.83","OS X","10_15_7","null","null","","","
                        <div class=orange>
                        <div class=""centered"">
                            <p style=""font-size: 24px""><b>53%</b></p>
                        </div>","O_2_2_O",""
"","","","","","html-keyboard-response","54","226888","0.0-2.0-2.0-1.0-0.0","44","1","2022-04-05 13:32:14","c79472ad15d8b617a4d57d5bf56a810f","125.63.20.238","Mozilla/5.0 (Macintosh; Intel Mac OS X 10_15_7) AppleWebKit/537.36 (KHTML, like Gecko) Chrome/99.0.4844.83 Safari/537.36","Macintosh","Chrome","99.0.4844.83","OS X","10_15_7","null","null","","","<p style=""font-size:64px;"">+</p>","O_2_2_O",""
"","","","","","html-keyboard-response","55","228143","0.0-2.0-2.0-1.0-1.0","44","1","2022-04-05 13:32:14","c79472ad15d8b617a4d57d5bf56a810f","125.63.20.238","Mozilla/5.0 (Macintosh; Intel Mac OS X 10_15_7) AppleWebKit/537.36 (KHTML, like Gecko) Chrome/99.0.4844.83 Safari/537.36","Macintosh","Chrome","99.0.4844.83","OS X","10_15_7","null","null","","","
                        <div class=""orange"">
                        <div class=""centered"">
                            <p style=""font-size: 24px""><b>50%</b></p>
                        </div>","O_2_2_O",""
"","","","","","html-slider-response","56","230715","0.0-2.0-2.0-2.0","44","1","2022-04-05 13:32:14","c79472ad15d8b617a4d57d5bf56a810f","125.63.20.238","Mozilla/5.0 (Macintosh; Intel Mac OS X 10_15_7) AppleWebKit/537.36 (KHTML, like Gecko) Chrome/99.0.4844.83 Safari/537.36","Macintosh","Chrome","99.0.4844.83","OS X","10_15_7","2567.7000000476837","38","","","<div style=""width: 500px; height: 100px;""><p>Place your bid for more information.</p></div>","infoBid","36"
"","","","","","html-keyboard-response","57","231121","0.0-2.0-2.0-3.0-0.0","44","1","2022-04-05 13:32:14","c79472ad15d8b617a4d57d5bf56a810f","125.63.20.238","Mozilla/5.0 (Macintosh; Intel Mac OS X 10_15_7) AppleWebKit/537.36 (KHTML, like Gecko) Chrome/99.0.4844.83 Safari/537.36","Macintosh","Chrome","99.0.4844.83","OS X","10_15_7","null","null","","","<p style=""font-size:64px;"">+</p>","O_2_2_O",""
"","","","","","html-keyboard-response","58","232376","0.0-2.0-2.0-3.0-1.0","44","1","2022-04-05 13:32:14","c79472ad15d8b617a4d57d5bf56a810f","125.63.20.238","Mozilla/5.0 (Macintosh; Intel Mac OS X 10_15_7) AppleWebKit/537.36 (KHTML, like Gecko) Chrome/99.0.4844.83 Safari/537.36","Macintosh","Chrome","99.0.4844.83","OS X","10_15_7","null","null","","","<div class=orange>
                <div class=""centered"">
                    <p style=""font-size: 24px""><b>52%</b></p>
                </div>","O_2_2_O",""
"","","","","","html-keyboard-response","59","233268","0.0-2.0-2.0-4.0-0.0","44","1","2022-04-05 13:32:14","c79472ad15d8b617a4d57d5bf56a810f","125.63.20.238","Mozilla/5.0 (Macintosh; Intel Mac OS X 10_15_7) AppleWebKit/537.36 (KHTML, like Gecko) Chrome/99.0.4844.83 Safari/537.36","Macintosh","Chrome","99.0.4844.83","OS X","10_15_7","885.3000000119209","f","","","
                      <div class=""row"">

                          <div class=""column"">
                              <div class=""orange""></div>
                              <div class=""leftChoiceText"">
                                  <p style=""font-size: 32px""><b>F</b></p>
                              </div>
                          </div>

                          <div class=""column"">
                              <div class=""pink""></div>
                              <div class=""rightChoiceText"">
                                  <p style=""font-size: 32px""><b>J</b></p>
                              </div>
                          </div>

                      </div>

                      <div class=""centeredTop"">
                          Which colour do you<br>
                          predict will win?
                      </div>","O_2_2_O",""
"","","","","","html-keyboard-response","60","234776","0.0-2.0-2.0-4.0-1.0","44","1","2022-04-05 13:32:14","c79472ad15d8b617a4d57d5bf56a810f","125.63.20.238","Mozilla/5.0 (Macintosh; Intel Mac OS X 10_15_7) AppleWebKit/537.36 (KHTML, like Gecko) Chrome/99.0.4844.83 Safari/537.36","Macintosh","Chrome","99.0.4844.83","OS X","10_15_7","null","null","","","<p style=""font-size:64px;"">+</p>","O_2_2_O",""
"","","","","","html-keyboard-response","61","235180","0.0-2.0-3.0-0.0-0.0","44","1","2022-04-05 13:32:14","c79472ad15d8b617a4d57d5bf56a810f","125.63.20.238","Mozilla/5.0 (Macintosh; Intel Mac OS X 10_15_7) AppleWebKit/537.36 (KHTML, like Gecko) Chrome/99.0.4844.83 Safari/537.36","Macintosh","Chrome","99.0.4844.83","OS X","10_15_7","null","null","","","<p style=""font-size:64px;"">+</p>","O_4_3_P",""
"","","","","","html-keyboard-response","62","236435","0.0-2.0-3.0-0.0-1.0","44","1","2022-04-05 13:32:14","c79472ad15d8b617a4d57d5bf56a810f","125.63.20.238","Mozilla/5.0 (Macintosh; Intel Mac OS X 10_15_7) AppleWebKit/537.36 (KHTML, like Gecko) Chrome/99.0.4844.83 Safari/537.36","Macintosh","Chrome","99.0.4844.83","OS X","10_15_7","null","null","","","
                        <div class=orange>
                        <div class=""centered"">
                            <p style=""font-size: 24px""><b>55%</b></p>
                        </div>","O_4_3_P",""
"","","","","","html-keyboard-response","63","236841","0.0-2.0-3.0-0.0-0.1","44","1","2022-04-05 13:32:14","c79472ad15d8b617a4d57d5bf56a810f","125.63.20.238","Mozilla/5.0 (Macintosh; Intel Mac OS X 10_15_7) AppleWebKit/537.36 (KHTML, like Gecko) Chrome/99.0.4844.83 Safari/537.36","Macintosh","Chrome","99.0.4844.83","OS X","10_15_7","null","null","","","<p style=""font-size:64px;"">+</p>","O_4_3_P",""
"","","","","","html-keyboard-response","64","238097","0.0-2.0-3.0-0.0-1.1","44","1","2022-04-05 13:32:14","c79472ad15d8b617a4d57d5bf56a810f","125.63.20.238","Mozilla/5.0 (Macintosh; Intel Mac OS X 10_15_7) AppleWebKit/537.36 (KHTML, like Gecko) Chrome/99.0.4844.83 Safari/537.36","Macintosh","Chrome","99.0.4844.83","OS X","10_15_7","null","null","","","
                        <div class=pink>
                        <div class=""centered"">
                            <p style=""font-size: 24px""><b>52%</b></p>
                        </div>","O_4_3_P",""
"","","","","","html-keyboard-response","65","238501","0.0-2.0-3.0-0.0-0.2","44","1","2022-04-05 13:32:14","c79472ad15d8b617a4d57d5bf56a810f","125.63.20.238","Mozilla/5.0 (Macintosh; Intel Mac OS X 10_15_7) AppleWebKit/537.36 (KHTML, like Gecko) Chrome/99.0.4844.83 Safari/537.36","Macintosh","Chrome","99.0.4844.83","OS X","10_15_7","null","null","","","<p style=""font-size:64px;"">+</p>","O_4_3_P",""
"","","","","","html-keyboard-response","66","239757","0.0-2.0-3.0-0.0-1.2","44","1","2022-04-05 13:32:14","c79472ad15d8b617a4d57d5bf56a810f","125.63.20.238","Mozilla/5.0 (Macintosh; Intel Mac OS X 10_15_7) AppleWebKit/537.36 (KHTML, like Gecko) Chrome/99.0.4844.83 Safari/537.36","Macintosh","Chrome","99.0.4844.83","OS X","10_15_7","null","null","","","
                        <div class=pink>
                        <div class=""centered"">
                            <p style=""font-size: 24px""><b>53%</b></p>
                        </div>","O_4_3_P",""
"","","","","","html-keyboard-response","67","240163","0.0-2.0-3.0-0.0-0.3","44","1","2022-04-05 13:32:14","c79472ad15d8b617a4d57d5bf56a810f","125.63.20.238","Mozilla/5.0 (Macintosh; Intel Mac OS X 10_15_7) AppleWebKit/537.36 (KHTML, like Gecko) Chrome/99.0.4844.83 Safari/537.36","Macintosh","Chrome","99.0.4844.83","OS X","10_15_7","null","null","","","<p style=""font-size:64px;"">+</p>","O_4_3_P",""
"","","","","","html-keyboard-response","68","241417","0.0-2.0-3.0-0.0-1.3","44","1","2022-04-05 13:32:14","c79472ad15d8b617a4d57d5bf56a810f","125.63.20.238","Mozilla/5.0 (Macintosh; Intel Mac OS X 10_15_7) AppleWebKit/537.36 (KHTML, like Gecko) Chrome/99.0.4844.83 Safari/537.36","Macintosh","Chrome","99.0.4844.83","OS X","10_15_7","null","null","","","
                        <div class=orange>
                        <div class=""centered"">
                            <p style=""font-size: 24px""><b>53%</b></p>
                        </div>","O_4_3_P",""
"","","","","","html-keyboard-response","69","241827","0.0-2.0-3.0-0.0-0.4","44","1","2022-04-05 13:32:14","c79472ad15d8b617a4d57d5bf56a810f","125.63.20.238","Mozilla/5.0 (Macintosh; Intel Mac OS X 10_15_7) AppleWebKit/537.36 (KHTML, like Gecko) Chrome/99.0.4844.83 Safari/537.36","Macintosh","Chrome","99.0.4844.83","OS X","10_15_7","null","null","","","<p style=""font-size:64px;"">+</p>","O_4_3_P",""
"","","","","","html-keyboard-response","70","243085","0.0-2.0-3.0-0.0-1.4","44","1","2022-04-05 13:32:14","c79472ad15d8b617a4d57d5bf56a810f","125.63.20.238","Mozilla/5.0 (Macintosh; Intel Mac OS X 10_15_7) AppleWebKit/537.36 (KHTML, like Gecko) Chrome/99.0.4844.83 Safari/537.36","Macintosh","Chrome","99.0.4844.83","OS X","10_15_7","null","null","","","
                        <div class=orange>
                        <div class=""centered"">
                            <p style=""font-size: 24px""><b>53%</b></p>
                        </div>","O_4_3_P",""
"","","","","","html-keyboard-response","71","243493","0.0-2.0-3.0-0.0-0.5","44","1","2022-04-05 13:32:14","c79472ad15d8b617a4d57d5bf56a810f","125.63.20.238","Mozilla/5.0 (Macintosh; Intel Mac OS X 10_15_7) AppleWebKit/537.36 (KHTML, like Gecko) Chrome/99.0.4844.83 Safari/537.36","Macintosh","Chrome","99.0.4844.83","OS X","10_15_7","null","null","","","<p style=""font-size:64px;"">+</p>","O_4_3_P",""
"","","","","","html-keyboard-response","72","244747","0.0-2.0-3.0-0.0-1.5","44","1","2022-04-05 13:32:14","c79472ad15d8b617a4d57d5bf56a810f","125.63.20.238","Mozilla/5.0 (Macintosh; Intel Mac OS X 10_15_7) AppleWebKit/537.36 (KHTML, like Gecko) Chrome/99.0.4844.83 Safari/537.36","Macintosh","Chrome","99.0.4844.83","OS X","10_15_7","null","null","","","
                        <div class=pink>
                        <div class=""centered"">
                            <p style=""font-size: 24px""><b>52%</b></p>
                        </div>","O_4_3_P",""
"","","","","","html-keyboard-response","73","245151","0.0-2.0-3.0-1.0-0.0","44","1","2022-04-05 13:32:14","c79472ad15d8b617a4d57d5bf56a810f","125.63.20.238","Mozilla/5.0 (Macintosh; Intel Mac OS X 10_15_7) AppleWebKit/537.36 (KHTML, like Gecko) Chrome/99.0.4844.83 Safari/537.36","Macintosh","Chrome","99.0.4844.83","OS X","10_15_7","null","null","","","<p style=""font-size:64px;"">+</p>","O_4_3_P",""
"","","","","","html-keyboard-response","74","246407","0.0-2.0-3.0-1.0-1.0","44","1","2022-04-05 13:32:14","c79472ad15d8b617a4d57d5bf56a810f","125.63.20.238","Mozilla/5.0 (Macintosh; Intel Mac OS X 10_15_7) AppleWebKit/537.36 (KHTML, like Gecko) Chrome/99.0.4844.83 Safari/537.36","Macintosh","Chrome","99.0.4844.83","OS X","10_15_7","null","null","","","
                        <div class=""pink"">
                        <div class=""centered"">
                            <p style=""font-size: 24px""><b>50%</b></p>
                        </div>","O_4_3_P",""
"","","","","","html-slider-response","75","248970","0.0-2.0-3.0-2.0","44","1","2022-04-05 13:32:14","c79472ad15d8b617a4d57d5bf56a810f","125.63.20.238","Mozilla/5.0 (Macintosh; Intel Mac OS X 10_15_7) AppleWebKit/537.36 (KHTML, like Gecko) Chrome/99.0.4844.83 Safari/537.36","Macintosh","Chrome","99.0.4844.83","OS X","10_15_7","2559.600000023842","34","","","<div style=""width: 500px; height: 100px;""><p>Place your bid for more information.</p></div>","infoBid","0"
"","","","","","html-keyboard-response","76","249375","0.0-2.0-3.0-3.0-0.0","44","1","2022-04-05 13:32:14","c79472ad15d8b617a4d57d5bf56a810f","125.63.20.238","Mozilla/5.0 (Macintosh; Intel Mac OS X 10_15_7) AppleWebKit/537.36 (KHTML, like Gecko) Chrome/99.0.4844.83 Safari/537.36","Macintosh","Chrome","99.0.4844.83","OS X","10_15_7","null","null","","","<p style=""font-size:64px;"">+</p>","O_4_3_P",""
"","","","","","html-keyboard-response","77","250630","0.0-2.0-3.0-3.0-1.0","44","1","2022-04-05 13:32:14","c79472ad15d8b617a4d57d5bf56a810f","125.63.20.238","Mozilla/5.0 (Macintosh; Intel Mac OS X 10_15_7) AppleWebKit/537.36 (KHTML, like Gecko) Chrome/99.0.4844.83 Safari/537.36","Macintosh","Chrome","99.0.4844.83","OS X","10_15_7","null","null","","","<div class=pink>
                <div class=""centered"">
                    <p style=""font-size: 24px""><b>51%</b></p>
                </div>","O_4_3_P",""
"","","","","","html-keyboard-response","78","251854","0.0-2.0-3.0-4.0-0.0","44","1","2022-04-05 13:32:14","c79472ad15d8b617a4d57d5bf56a810f","125.63.20.238","Mozilla/5.0 (Macintosh; Intel Mac OS X 10_15_7) AppleWebKit/537.36 (KHTML, like Gecko) Chrome/99.0.4844.83 Safari/537.36","Macintosh","Chrome","99.0.4844.83","OS X","10_15_7","1218.1000000238419","j","","","
                      <div class=""row"">

                          <div class=""column"">
                              <div class=""orange""></div>
                              <div class=""leftChoiceText"">
                                  <p style=""font-size: 32px""><b>F</b></p>
                              </div>
                          </div>

                          <div class=""column"">
                              <div class=""pink""></div>
                              <div class=""rightChoiceText"">
                                  <p style=""font-size: 32px""><b>J</b></p>
                              </div>
                          </div>

                      </div>

                      <div class=""centeredTop"">
                          Which colour do you<br>
                          predict will win?
                      </div>","O_4_3_P",""
"","","","","","html-keyboard-response","79","253360","0.0-2.0-3.0-4.0-1.0","44","1","2022-04-05 13:32:14","c79472ad15d8b617a4d57d5bf56a810f","125.63.20.238","Mozilla/5.0 (Macintosh; Intel Mac OS X 10_15_7) AppleWebKit/537.36 (KHTML, like Gecko) Chrome/99.0.4844.83 Safari/537.36","Macintosh","Chrome","99.0.4844.83","OS X","10_15_7","null","null","","","<p style=""font-size:64px;"">+</p>","O_4_3_P",""
"","","","","","html-keyboard-response","80","253769","0.0-2.0-4.0-0.0-0.0","44","1","2022-04-05 13:32:14","c79472ad15d8b617a4d57d5bf56a810f","125.63.20.238","Mozilla/5.0 (Macintosh; Intel Mac OS X 10_15_7) AppleWebKit/537.36 (KHTML, like Gecko) Chrome/99.0.4844.83 Safari/537.36","Macintosh","Chrome","99.0.4844.83","OS X","10_15_7","null","null","","","<p style=""font-size:64px;"">+</p>","Z_4_O",""
"","","","","","html-keyboard-response","81","255026","0.0-2.0-4.0-0.0-1.0","44","1","2022-04-05 13:32:14","c79472ad15d8b617a4d57d5bf56a810f","125.63.20.238","Mozilla/5.0 (Macintosh; Intel Mac OS X 10_15_7) AppleWebKit/537.36 (KHTML, like Gecko) Chrome/99.0.4844.83 Safari/537.36","Macintosh","Chrome","99.0.4844.83","OS X","10_15_7","null","null","","","
                        <div class=orange>
                        <div class=""centered"">
                            <p style=""font-size: 24px""><b>54%</b></p>
                        </div>","Z_4_O",""
"","","","","","html-keyboard-response","82","255431","0.0-2.0-4.0-0.0-0.1","44","1","2022-04-05 13:32:14","c79472ad15d8b617a4d57d5bf56a810f","125.63.20.238","Mozilla/5.0 (Macintosh; Intel Mac OS X 10_15_7) AppleWebKit/537.36 (KHTML, like Gecko) Chrome/99.0.4844.83 Safari/537.36","Macintosh","Chrome","99.0.4844.83","OS X","10_15_7","null","null","","","<p style=""font-size:64px;"">+</p>","Z_4_O",""
"","","","","","html-keyboard-response","83","256688","0.0-2.0-4.0-0.0-1.1","44","1","2022-04-05 13:32:14","c79472ad15d8b617a4d57d5bf56a810f","125.63.20.238","Mozilla/5.0 (Macintosh; Intel Mac OS X 10_15_7) AppleWebKit/537.36 (KHTML, like Gecko) Chrome/99.0.4844.83 Safari/537.36","Macintosh","Chrome","99.0.4844.83","OS X","10_15_7","null","null","","","
                        <div class=pink>
                        <div class=""centered"">
                            <p style=""font-size: 24px""><b>53%</b></p>
                        </div>","Z_4_O",""
"","","","","","html-keyboard-response","84","257093","0.0-2.0-4.0-0.0-0.2","44","1","2022-04-05 13:32:14","c79472ad15d8b617a4d57d5bf56a810f","125.63.20.238","Mozilla/5.0 (Macintosh; Intel Mac OS X 10_15_7) AppleWebKit/537.36 (KHTML, like Gecko) Chrome/99.0.4844.83 Safari/537.36","Macintosh","Chrome","99.0.4844.83","OS X","10_15_7","null","null","","","<p style=""font-size:64px;"">+</p>","Z_4_O",""
"","","","","","html-keyboard-response","85","258349","0.0-2.0-4.0-0.0-1.2","44","1","2022-04-05 13:32:14","c79472ad15d8b617a4d57d5bf56a810f","125.63.20.238","Mozilla/5.0 (Macintosh; Intel Mac OS X 10_15_7) AppleWebKit/537.36 (KHTML, like Gecko) Chrome/99.0.4844.83 Safari/537.36","Macintosh","Chrome","99.0.4844.83","OS X","10_15_7","null","null","","","
                        <div class=orange>
                        <div class=""centered"">
                            <p style=""font-size: 24px""><b>54%</b></p>
                        </div>","Z_4_O",""
"","","","","","html-keyboard-response","86","258756","0.0-2.0-4.0-0.0-0.3","44","1","2022-04-05 13:32:14","c79472ad15d8b617a4d57d5bf56a810f","125.63.20.238","Mozilla/5.0 (Macintosh; Intel Mac OS X 10_15_7) AppleWebKit/537.36 (KHTML, like Gecko) Chrome/99.0.4844.83 Safari/537.36","Macintosh","Chrome","99.0.4844.83","OS X","10_15_7","null","null","","","<p style=""font-size:64px;"">+</p>","Z_4_O",""
"","","","","","html-keyboard-response","87","260015","0.0-2.0-4.0-0.0-1.3","44","1","2022-04-05 13:32:14","c79472ad15d8b617a4d57d5bf56a810f","125.63.20.238","Mozilla/5.0 (Macintosh; Intel Mac OS X 10_15_7) AppleWebKit/537.36 (KHTML, like Gecko) Chrome/99.0.4844.83 Safari/537.36","Macintosh","Chrome","99.0.4844.83","OS X","10_15_7","null","null","","","
                        <div class=pink>
                        <div class=""centered"">
                            <p style=""font-size: 24px""><b>55%</b></p>
                        </div>","Z_4_O",""
"","","","","","html-keyboard-response","88","260418","0.0-2.0-4.0-0.0-0.4","44","1","2022-04-05 13:32:14","c79472ad15d8b617a4d57d5bf56a810f","125.63.20.238","Mozilla/5.0 (Macintosh; Intel Mac OS X 10_15_7) AppleWebKit/537.36 (KHTML, like Gecko) Chrome/99.0.4844.83 Safari/537.36","Macintosh","Chrome","99.0.4844.83","OS X","10_15_7","null","null","","","<p style=""font-size:64px;"">+</p>","Z_4_O",""
"","","","","","html-keyboard-response","89","261676","0.0-2.0-4.0-0.0-1.4","44","1","2022-04-05 13:32:14","c79472ad15d8b617a4d57d5bf56a810f","125.63.20.238","Mozilla/5.0 (Macintosh; Intel Mac OS X 10_15_7) AppleWebKit/537.36 (KHTML, like Gecko) Chrome/99.0.4844.83 Safari/537.36","Macintosh","Chrome","99.0.4844.83","OS X","10_15_7","null","null","","","
                        <div class=orange>
                        <div class=""centered"">
                            <p style=""font-size: 24px""><b>51%</b></p>
                        </div>","Z_4_O",""
"","","","","","html-keyboard-response","90","262080","0.0-2.0-4.0-0.0-0.5","44","1","2022-04-05 13:32:14","c79472ad15d8b617a4d57d5bf56a810f","125.63.20.238","Mozilla/5.0 (Macintosh; Intel Mac OS X 10_15_7) AppleWebKit/537.36 (KHTML, like Gecko) Chrome/99.0.4844.83 Safari/537.36","Macintosh","Chrome","99.0.4844.83","OS X","10_15_7","null","null","","","<p style=""font-size:64px;"">+</p>","Z_4_O",""
"","","","","","html-keyboard-response","91","263335","0.0-2.0-4.0-0.0-1.5","44","1","2022-04-05 13:32:14","c79472ad15d8b617a4d57d5bf56a810f","125.63.20.238","Mozilla/5.0 (Macintosh; Intel Mac OS X 10_15_7) AppleWebKit/537.36 (KHTML, like Gecko) Chrome/99.0.4844.83 Safari/537.36","Macintosh","Chrome","99.0.4844.83","OS X","10_15_7","null","null","","","
                        <div class=pink>
                        <div class=""centered"">
                            <p style=""font-size: 24px""><b>51%</b></p>
                        </div>","Z_4_O",""
"","","","","","html-keyboard-response","92","263741","0.0-2.0-4.0-1.0-0.0","44","1","2022-04-05 13:32:14","c79472ad15d8b617a4d57d5bf56a810f","125.63.20.238","Mozilla/5.0 (Macintosh; Intel Mac OS X 10_15_7) AppleWebKit/537.36 (KHTML, like Gecko) Chrome/99.0.4844.83 Safari/537.36","Macintosh","Chrome","99.0.4844.83","OS X","10_15_7","null","null","","","<p style=""font-size:64px;"">+</p>","Z_4_O",""
"","","","","","html-keyboard-response","93","264994","0.0-2.0-4.0-1.0-1.0","44","1","2022-04-05 13:32:14","c79472ad15d8b617a4d57d5bf56a810f","125.63.20.238","Mozilla/5.0 (Macintosh; Intel Mac OS X 10_15_7) AppleWebKit/537.36 (KHTML, like Gecko) Chrome/99.0.4844.83 Safari/537.36","Macintosh","Chrome","99.0.4844.83","OS X","10_15_7","null","null","","","
                        <div class=""orange"">
                        <div class=""centered"">
                            <p style=""font-size: 24px""><b>50%</b></p>
                        </div>","Z_4_O",""
"","","","","","html-slider-response","94","267974","0.0-2.0-4.0-2.0","44","1","2022-04-05 13:32:14","c79472ad15d8b617a4d57d5bf56a810f","125.63.20.238","Mozilla/5.0 (Macintosh; Intel Mac OS X 10_15_7) AppleWebKit/537.36 (KHTML, like Gecko) Chrome/99.0.4844.83 Safari/537.36","Macintosh","Chrome","99.0.4844.83","OS X","10_15_7","2976.5","42","","","<div style=""width: 500px; height: 100px;""><p>Place your bid for more information.</p></div>","infoBid","45"
"","","","","","html-keyboard-response","95","268380","0.0-2.0-4.0-3.0-0.0","44","1","2022-04-05 13:32:14","c79472ad15d8b617a4d57d5bf56a810f","125.63.20.238","Mozilla/5.0 (Macintosh; Intel Mac OS X 10_15_7) AppleWebKit/537.36 (KHTML, like Gecko) Chrome/99.0.4844.83 Safari/537.36","Macintosh","Chrome","99.0.4844.83","OS X","10_15_7","null","null","","","<p style=""font-size:64px;"">+</p>","Z_4_O",""
"","","","","","html-keyboard-response","96","269635","0.0-2.0-4.0-3.0-1.0","44","1","2022-04-05 13:32:14","c79472ad15d8b617a4d57d5bf56a810f","125.63.20.238","Mozilla/5.0 (Macintosh; Intel Mac OS X 10_15_7) AppleWebKit/537.36 (KHTML, like Gecko) Chrome/99.0.4844.83 Safari/537.36","Macintosh","Chrome","99.0.4844.83","OS X","10_15_7","null","null","","","<div class=orange>
                <div class=""centered"">
                    <p style=""font-size: 24px""><b>52%</b></p>
                </div>","Z_4_O",""
"","","","","","html-keyboard-response","97","271281","0.0-2.0-4.0-4.0-0.0","44","1","2022-04-05 13:32:14","c79472ad15d8b617a4d57d5bf56a810f","125.63.20.238","Mozilla/5.0 (Macintosh; Intel Mac OS X 10_15_7) AppleWebKit/537.36 (KHTML, like Gecko) Chrome/99.0.4844.83 Safari/537.36","Macintosh","Chrome","99.0.4844.83","OS X","10_15_7","1642.800000011921","j","","","
                      <div class=""row"">

                          <div class=""column"">
                              <div class=""orange""></div>
                              <div class=""leftChoiceText"">
                                  <p style=""font-size: 32px""><b>F</b></p>
                              </div>
                          </div>

                          <div class=""column"">
                              <div class=""pink""></div>
                              <div class=""rightChoiceText"">
                                  <p style=""font-size: 32px""><b>J</b></p>
                              </div>
                          </div>

                      </div>

                      <div class=""centeredTop"">
                          Which colour do you<br>
                          predict will win?
                      </div>","Z_4_O",""
"","","","","","html-keyboard-response","98","272785","0.0-2.0-4.0-4.0-1.0","44","1","2022-04-05 13:32:14","c79472ad15d8b617a4d57d5bf56a810f","125.63.20.238","Mozilla/5.0 (Macintosh; Intel Mac OS X 10_15_7) AppleWebKit/537.36 (KHTML, like Gecko) Chrome/99.0.4844.83 Safari/537.36","Macintosh","Chrome","99.0.4844.83","OS X","10_15_7","null","null","","","<p style=""font-size:64px;"">+</p>","Z_4_O",""
"","","","","","html-keyboard-response","99","273193","0.0-2.0-5.0-0.0-0.0","44","1","2022-04-05 13:32:14","c79472ad15d8b617a4d57d5bf56a810f","125.63.20.238","Mozilla/5.0 (Macintosh; Intel Mac OS X 10_15_7) AppleWebKit/537.36 (KHTML, like Gecko) Chrome/99.0.4844.83 Safari/537.36","Macintosh","Chrome","99.0.4844.83","OS X","10_15_7","null","null","","","<p style=""font-size:64px;"">+</p>","O_6_6_P",""
"","","","","","html-keyboard-response","100","274454","0.0-2.0-5.0-0.0-1.0","44","1","2022-04-05 13:32:14","c79472ad15d8b617a4d57d5bf56a810f","125.63.20.238","Mozilla/5.0 (Macintosh; Intel Mac OS X 10_15_7) AppleWebKit/537.36 (KHTML, like Gecko) Chrome/99.0.4844.83 Safari/537.36","Macintosh","Chrome","99.0.4844.83","OS X","10_15_7","null","null","","","
                        <div class=pink>
                        <div class=""centered"">
                            <p style=""font-size: 24px""><b>52%</b></p>
                        </div>","O_6_6_P",""
"","","","","","html-keyboard-response","101","274859","0.0-2.0-5.0-0.0-0.1","44","1","2022-04-05 13:32:14","c79472ad15d8b617a4d57d5bf56a810f","125.63.20.238","Mozilla/5.0 (Macintosh; Intel Mac OS X 10_15_7) AppleWebKit/537.36 (KHTML, like Gecko) Chrome/99.0.4844.83 Safari/537.36","Macintosh","Chrome","99.0.4844.83","OS X","10_15_7","null","null","","","<p style=""font-size:64px;"">+</p>","O_6_6_P",""
"","","","","","html-keyboard-response","102","276114","0.0-2.0-5.0-0.0-1.1","44","1","2022-04-05 13:32:14","c79472ad15d8b617a4d57d5bf56a810f","125.63.20.238","Mozilla/5.0 (Macintosh; Intel Mac OS X 10_15_7) AppleWebKit/537.36 (KHTML, like Gecko) Chrome/99.0.4844.83 Safari/537.36","Macintosh","Chrome","99.0.4844.83","OS X","10_15_7","null","null","","","
                        <div class=orange>
                        <div class=""centered"">
                            <p style=""font-size: 24px""><b>55%</b></p>
                        </div>","O_6_6_P",""
"","","","","","html-keyboard-response","103","276523","0.0-2.0-5.0-0.0-0.2","44","1","2022-04-05 13:32:14","c79472ad15d8b617a4d57d5bf56a810f","125.63.20.238","Mozilla/5.0 (Macintosh; Intel Mac OS X 10_15_7) AppleWebKit/537.36 (KHTML, like Gecko) Chrome/99.0.4844.83 Safari/537.36","Macintosh","Chrome","99.0.4844.83","OS X","10_15_7","null","null","","","<p style=""font-size:64px;"">+</p>","O_6_6_P",""
"","","","","","html-keyboard-response","104","277781","0.0-2.0-5.0-0.0-1.2","44","1","2022-04-05 13:32:14","c79472ad15d8b617a4d57d5bf56a810f","125.63.20.238","Mozilla/5.0 (Macintosh; Intel Mac OS X 10_15_7) AppleWebKit/537.36 (KHTML, like Gecko) Chrome/99.0.4844.83 Safari/537.36","Macintosh","Chrome","99.0.4844.83","OS X","10_15_7","null","null","","","
                        <div class=pink>
                        <div class=""centered"">
                            <p style=""font-size: 24px""><b>53%</b></p>
                        </div>","O_6_6_P",""
"","","","","","html-keyboard-response","105","278185","0.0-2.0-5.0-0.0-0.3","44","1","2022-04-05 13:32:14","c79472ad15d8b617a4d57d5bf56a810f","125.63.20.238","Mozilla/5.0 (Macintosh; Intel Mac OS X 10_15_7) AppleWebKit/537.36 (KHTML, like Gecko) Chrome/99.0.4844.83 Safari/537.36","Macintosh","Chrome","99.0.4844.83","OS X","10_15_7","null","null","","","<p style=""font-size:64px;"">+</p>","O_6_6_P",""
"","","","","","html-keyboard-response","106","279443","0.0-2.0-5.0-0.0-1.3","44","1","2022-04-05 13:32:14","c79472ad15d8b617a4d57d5bf56a810f","125.63.20.238","Mozilla/5.0 (Macintosh; Intel Mac OS X 10_15_7) AppleWebKit/537.36 (KHTML, like Gecko) Chrome/99.0.4844.83 Safari/537.36","Macintosh","Chrome","99.0.4844.83","OS X","10_15_7","null","null","","","
                        <div class=pink>
                        <div class=""centered"">
                            <p style=""font-size: 24px""><b>53%</b></p>
                        </div>","O_6_6_P",""
"","","","","","html-keyboard-response","107","279847","0.0-2.0-5.0-0.0-0.4","44","1","2022-04-05 13:32:14","c79472ad15d8b617a4d57d5bf56a810f","125.63.20.238","Mozilla/5.0 (Macintosh; Intel Mac OS X 10_15_7) AppleWebKit/537.36 (KHTML, like Gecko) Chrome/99.0.4844.83 Safari/537.36","Macintosh","Chrome","99.0.4844.83","OS X","10_15_7","null","null","","","<p style=""font-size:64px;"">+</p>","O_6_6_P",""
"","","","","","html-keyboard-response","108","281102","0.0-2.0-5.0-0.0-1.4","44","1","2022-04-05 13:32:14","c79472ad15d8b617a4d57d5bf56a810f","125.63.20.238","Mozilla/5.0 (Macintosh; Intel Mac OS X 10_15_7) AppleWebKit/537.36 (KHTML, like Gecko) Chrome/99.0.4844.83 Safari/537.36","Macintosh","Chrome","99.0.4844.83","OS X","10_15_7","null","null","","","
                        <div class=orange>
                        <div class=""centered"">
                            <p style=""font-size: 24px""><b>54%</b></p>
                        </div>","O_6_6_P",""
"","","","","","html-keyboard-response","109","281507","0.0-2.0-5.0-0.0-0.5","44","1","2022-04-05 13:32:14","c79472ad15d8b617a4d57d5bf56a810f","125.63.20.238","Mozilla/5.0 (Macintosh; Intel Mac OS X 10_15_7) AppleWebKit/537.36 (KHTML, like Gecko) Chrome/99.0.4844.83 Safari/537.36","Macintosh","Chrome","99.0.4844.83","OS X","10_15_7","null","null","","","<p style=""font-size:64px;"">+</p>","O_6_6_P",""
"","","","","","html-keyboard-response","110","282764","0.0-2.0-5.0-0.0-1.5","44","1","2022-04-05 13:32:14","c79472ad15d8b617a4d57d5bf56a810f","125.63.20.238","Mozilla/5.0 (Macintosh; Intel Mac OS X 10_15_7) AppleWebKit/537.36 (KHTML, like Gecko) Chrome/99.0.4844.83 Safari/537.36","Macintosh","Chrome","99.0.4844.83","OS X","10_15_7","null","null","","","
                        <div class=orange>
                        <div class=""centered"">
                            <p style=""font-size: 24px""><b>55%</b></p>
                        </div>","O_6_6_P",""
"","","","","","html-keyboard-response","111","283168","0.0-2.0-5.0-1.0-0.0","44","1","2022-04-05 13:32:14","c79472ad15d8b617a4d57d5bf56a810f","125.63.20.238","Mozilla/5.0 (Macintosh; Intel Mac OS X 10_15_7) AppleWebKit/537.36 (KHTML, like Gecko) Chrome/99.0.4844.83 Safari/537.36","Macintosh","Chrome","99.0.4844.83","OS X","10_15_7","null","null","","","<p style=""font-size:64px;"">+</p>","O_6_6_P",""
"","","","","","html-keyboard-response","112","284425","0.0-2.0-5.0-1.0-1.0","44","1","2022-04-05 13:32:14","c79472ad15d8b617a4d57d5bf56a810f","125.63.20.238","Mozilla/5.0 (Macintosh; Intel Mac OS X 10_15_7) AppleWebKit/537.36 (KHTML, like Gecko) Chrome/99.0.4844.83 Safari/537.36","Macintosh","Chrome","99.0.4844.83","OS X","10_15_7","null","null","","","
                        <div class=""pink"">
                        <div class=""centered"">
                            <p style=""font-size: 24px""><b>50%</b></p>
                        </div>","O_6_6_P",""
"","","","","","html-slider-response","113","286604","0.0-2.0-5.0-2.0","44","1","2022-04-05 13:32:14","c79472ad15d8b617a4d57d5bf56a810f","125.63.20.238","Mozilla/5.0 (Macintosh; Intel Mac OS X 10_15_7) AppleWebKit/537.36 (KHTML, like Gecko) Chrome/99.0.4844.83 Safari/537.36","Macintosh","Chrome","99.0.4844.83","OS X","10_15_7","2173.899999976158","30","","","<div style=""width: 500px; height: 100px;""><p>Place your bid for more information.</p></div>","infoBid","12"
"","","","","","html-keyboard-response","114","287008","0.0-2.0-5.0-3.0-0.0","44","1","2022-04-05 13:32:14","c79472ad15d8b617a4d57d5bf56a810f","125.63.20.238","Mozilla/5.0 (Macintosh; Intel Mac OS X 10_15_7) AppleWebKit/537.36 (KHTML, like Gecko) Chrome/99.0.4844.83 Safari/537.36","Macintosh","Chrome","99.0.4844.83","OS X","10_15_7","null","null","","","<p style=""font-size:64px;"">+</p>","O_6_6_P",""
"","","","","","html-keyboard-response","115","288268","0.0-2.0-5.0-3.0-1.0","44","1","2022-04-05 13:32:14","c79472ad15d8b617a4d57d5bf56a810f","125.63.20.238","Mozilla/5.0 (Macintosh; Intel Mac OS X 10_15_7) AppleWebKit/537.36 (KHTML, like Gecko) Chrome/99.0.4844.83 Safari/537.36","Macintosh","Chrome","99.0.4844.83","OS X","10_15_7","null","null","","","<div class=""grey"">
                <div class=""centered"">
                    <p style=""font-size: 24px""><b>???</b></p>
                </div>","O_6_6_P",""
"","","","","","html-keyboard-response","116","290392","0.0-2.0-5.0-4.0-0.0","44","1","2022-04-05 13:32:14","c79472ad15d8b617a4d57d5bf56a810f","125.63.20.238","Mozilla/5.0 (Macintosh; Intel Mac OS X 10_15_7) AppleWebKit/537.36 (KHTML, like Gecko) Chrome/99.0.4844.83 Safari/537.36","Macintosh","Chrome","99.0.4844.83","OS X","10_15_7","2120","f","","","
                      <div class=""row"">

                          <div class=""column"">
                              <div class=""orange""></div>
                              <div class=""leftChoiceText"">
                                  <p style=""font-size: 32px""><b>F</b></p>
                              </div>
                          </div>

                          <div class=""column"">
                              <div class=""pink""></div>
                              <div class=""rightChoiceText"">
                                  <p style=""font-size: 32px""><b>J</b></p>
                              </div>
                          </div>

                      </div>

                      <div class=""centeredTop"">
                          Which colour do you<br>
                          predict will win?
                      </div>","O_6_6_P",""
"","","","","","html-keyboard-response","117","291898","0.0-2.0-5.0-4.0-1.0","44","1","2022-04-05 13:32:14","c79472ad15d8b617a4d57d5bf56a810f","125.63.20.238","Mozilla/5.0 (Macintosh; Intel Mac OS X 10_15_7) AppleWebKit/537.36 (KHTML, like Gecko) Chrome/99.0.4844.83 Safari/537.36","Macintosh","Chrome","99.0.4844.83","OS X","10_15_7","null","null","","","<p style=""font-size:64px;"">+</p>","O_6_6_P",""
"","","","","","html-keyboard-response","118","292306","0.0-2.0-6.0-0.0-0.0","44","1","2022-04-05 13:32:14","c79472ad15d8b617a4d57d5bf56a810f","125.63.20.238","Mozilla/5.0 (Macintosh; Intel Mac OS X 10_15_7) AppleWebKit/537.36 (KHTML, like Gecko) Chrome/99.0.4844.83 Safari/537.36","Macintosh","Chrome","99.0.4844.83","OS X","10_15_7","null","null","","","<p style=""font-size:64px;"">+</p>","O_4_2_P",""
"","","","","","html-keyboard-response","119","293564","0.0-2.0-6.0-0.0-1.0","44","1","2022-04-05 13:32:14","c79472ad15d8b617a4d57d5bf56a810f","125.63.20.238","Mozilla/5.0 (Macintosh; Intel Mac OS X 10_15_7) AppleWebKit/537.36 (KHTML, like Gecko) Chrome/99.0.4844.83 Safari/537.36","Macintosh","Chrome","99.0.4844.83","OS X","10_15_7","null","null","","","
                        <div class=orange>
                        <div class=""centered"">
                            <p style=""font-size: 24px""><b>54%</b></p>
                        </div>","O_4_2_P",""
"","","","","","html-keyboard-response","120","293973","0.0-2.0-6.0-0.0-0.1","44","1","2022-04-05 13:32:14","c79472ad15d8b617a4d57d5bf56a810f","125.63.20.238","Mozilla/5.0 (Macintosh; Intel Mac OS X 10_15_7) AppleWebKit/537.36 (KHTML, like Gecko) Chrome/99.0.4844.83 Safari/537.36","Macintosh","Chrome","99.0.4844.83","OS X","10_15_7","null","null","","","<p style=""font-size:64px;"">+</p>","O_4_2_P",""
"","","","","","html-keyboard-response","121","295231","0.0-2.0-6.0-0.0-1.1","44","1","2022-04-05 13:32:14","c79472ad15d8b617a4d57d5bf56a810f","125.63.20.238","Mozilla/5.0 (Macintosh; Intel Mac OS X 10_15_7) AppleWebKit/537.36 (KHTML, like Gecko) Chrome/99.0.4844.83 Safari/537.36","Macintosh","Chrome","99.0.4844.83","OS X","10_15_7","null","null","","","
                        <div class=pink>
                        <div class=""centered"">
                            <p style=""font-size: 24px""><b>52%</b></p>
                        </div>","O_4_2_P",""
"","","","","","html-keyboard-response","122","295635","0.0-2.0-6.0-0.0-0.2","44","1","2022-04-05 13:32:14","c79472ad15d8b617a4d57d5bf56a810f","125.63.20.238","Mozilla/5.0 (Macintosh; Intel Mac OS X 10_15_7) AppleWebKit/537.36 (KHTML, like Gecko) Chrome/99.0.4844.83 Safari/537.36","Macintosh","Chrome","99.0.4844.83","OS X","10_15_7","null","null","","","<p style=""font-size:64px;"">+</p>","O_4_2_P",""
"","","","","","html-keyboard-response","123","296894","0.0-2.0-6.0-0.0-1.2","44","1","2022-04-05 13:32:14","c79472ad15d8b617a4d57d5bf56a810f","125.63.20.238","Mozilla/5.0 (Macintosh; Intel Mac OS X 10_15_7) AppleWebKit/537.36 (KHTML, like Gecko) Chrome/99.0.4844.83 Safari/537.36","Macintosh","Chrome","99.0.4844.83","OS X","10_15_7","null","null","","","
                        <div class=orange>
                        <div class=""centered"">
                            <p style=""font-size: 24px""><b>54%</b></p>
                        </div>","O_4_2_P",""
"","","","","","html-keyboard-response","124","297302","0.0-2.0-6.0-0.0-0.3","44","1","2022-04-05 13:32:14","c79472ad15d8b617a4d57d5bf56a810f","125.63.20.238","Mozilla/5.0 (Macintosh; Intel Mac OS X 10_15_7) AppleWebKit/537.36 (KHTML, like Gecko) Chrome/99.0.4844.83 Safari/537.36","Macintosh","Chrome","99.0.4844.83","OS X","10_15_7","null","null","","","<p style=""font-size:64px;"">+</p>","O_4_2_P",""
"","","","","","html-keyboard-response","125","298561","0.0-2.0-6.0-0.0-1.3","44","1","2022-04-05 13:32:14","c79472ad15d8b617a4d57d5bf56a810f","125.63.20.238","Mozilla/5.0 (Macintosh; Intel Mac OS X 10_15_7) AppleWebKit/537.36 (KHTML, like Gecko) Chrome/99.0.4844.83 Safari/537.36","Macintosh","Chrome","99.0.4844.83","OS X","10_15_7","null","null","","","
                        <div class=pink>
                        <div class=""centered"">
                            <p style=""font-size: 24px""><b>52%</b></p>
                        </div>","O_4_2_P",""
"","","","","","html-keyboard-response","126","298968","0.0-2.0-6.0-0.0-0.4","44","1","2022-04-05 13:32:14","c79472ad15d8b617a4d57d5bf56a810f","125.63.20.238","Mozilla/5.0 (Macintosh; Intel Mac OS X 10_15_7) AppleWebKit/537.36 (KHTML, like Gecko) Chrome/99.0.4844.83 Safari/537.36","Macintosh","Chrome","99.0.4844.83","OS X","10_15_7","null","null","","","<p style=""font-size:64px;"">+</p>","O_4_2_P",""
"","","","","","html-keyboard-response","127","300224","0.0-2.0-6.0-0.0-1.4","44","1","2022-04-05 13:32:14","c79472ad15d8b617a4d57d5bf56a810f","125.63.20.238","Mozilla/5.0 (Macintosh; Intel Mac OS X 10_15_7) AppleWebKit/537.36 (KHTML, like Gecko) Chrome/99.0.4844.83 Safari/537.36","Macintosh","Chrome","99.0.4844.83","OS X","10_15_7","null","null","","","
                        <div class=pink>
                        <div class=""centered"">
                            <p style=""font-size: 24px""><b>51%</b></p>
                        </div>","O_4_2_P",""
"","","","","","html-keyboard-response","128","300628","0.0-2.0-6.0-0.0-0.5","44","1","2022-04-05 13:32:14","c79472ad15d8b617a4d57d5bf56a810f","125.63.20.238","Mozilla/5.0 (Macintosh; Intel Mac OS X 10_15_7) AppleWebKit/537.36 (KHTML, like Gecko) Chrome/99.0.4844.83 Safari/537.36","Macintosh","Chrome","99.0.4844.83","OS X","10_15_7","null","null","","","<p style=""font-size:64px;"">+</p>","O_4_2_P",""
"","","","","","html-keyboard-response","129","301885","0.0-2.0-6.0-0.0-1.5","44","1","2022-04-05 13:32:14","c79472ad15d8b617a4d57d5bf56a810f","125.63.20.238","Mozilla/5.0 (Macintosh; Intel Mac OS X 10_15_7) AppleWebKit/537.36 (KHTML, like Gecko) Chrome/99.0.4844.83 Safari/537.36","Macintosh","Chrome","99.0.4844.83","OS X","10_15_7","null","null","","","
                        <div class=orange>
                        <div class=""centered"">
                            <p style=""font-size: 24px""><b>51%</b></p>
                        </div>","O_4_2_P",""
"","","","","","html-keyboard-response","130","302293","0.0-2.0-6.0-1.0-0.0","44","1","2022-04-05 13:32:14","c79472ad15d8b617a4d57d5bf56a810f","125.63.20.238","Mozilla/5.0 (Macintosh; Intel Mac OS X 10_15_7) AppleWebKit/537.36 (KHTML, like Gecko) Chrome/99.0.4844.83 Safari/537.36","Macintosh","Chrome","99.0.4844.83","OS X","10_15_7","null","null","","","<p style=""font-size:64px;"">+</p>","O_4_2_P",""
"","","","","","html-keyboard-response","131","303552","0.0-2.0-6.0-1.0-1.0","44","1","2022-04-05 13:32:14","c79472ad15d8b617a4d57d5bf56a810f","125.63.20.238","Mozilla/5.0 (Macintosh; Intel Mac OS X 10_15_7) AppleWebKit/537.36 (KHTML, like Gecko) Chrome/99.0.4844.83 Safari/537.36","Macintosh","Chrome","99.0.4844.83","OS X","10_15_7","null","null","","","
                        <div class=""pink"">
                        <div class=""centered"">
                            <p style=""font-size: 24px""><b>50%</b></p>
                        </div>","O_4_2_P",""
"","","","","","html-slider-response","132","306075","0.0-2.0-6.0-2.0","44","1","2022-04-05 13:32:14","c79472ad15d8b617a4d57d5bf56a810f","125.63.20.238","Mozilla/5.0 (Macintosh; Intel Mac OS X 10_15_7) AppleWebKit/537.36 (KHTML, like Gecko) Chrome/99.0.4844.83 Safari/537.36","Macintosh","Chrome","99.0.4844.83","OS X","10_15_7","2518.7000000476837","34","","","<div style=""width: 500px; height: 100px;""><p>Place your bid for more information.</p></div>","infoBid","17"
"","","","","","html-keyboard-response","133","306479","0.0-2.0-6.0-3.0-0.0","44","1","2022-04-05 13:32:14","c79472ad15d8b617a4d57d5bf56a810f","125.63.20.238","Mozilla/5.0 (Macintosh; Intel Mac OS X 10_15_7) AppleWebKit/537.36 (KHTML, like Gecko) Chrome/99.0.4844.83 Safari/537.36","Macintosh","Chrome","99.0.4844.83","OS X","10_15_7","null","null","","","<p style=""font-size:64px;"">+</p>","O_4_2_P",""
"","","","","","html-keyboard-response","134","307739","0.0-2.0-6.0-3.0-1.0","44","1","2022-04-05 13:32:14","c79472ad15d8b617a4d57d5bf56a810f","125.63.20.238","Mozilla/5.0 (Macintosh; Intel Mac OS X 10_15_7) AppleWebKit/537.36 (KHTML, like Gecko) Chrome/99.0.4844.83 Safari/537.36","Macintosh","Chrome","99.0.4844.83","OS X","10_15_7","null","null","","","<div class=""grey"">
                <div class=""centered"">
                    <p style=""font-size: 24px""><b>???</b></p>
                </div>","O_4_2_P",""
"","","","","","html-keyboard-response","135","309021","0.0-2.0-6.0-4.0-0.0","44","1","2022-04-05 13:32:14","c79472ad15d8b617a4d57d5bf56a810f","125.63.20.238","Mozilla/5.0 (Macintosh; Intel Mac OS X 10_15_7) AppleWebKit/537.36 (KHTML, like Gecko) Chrome/99.0.4844.83 Safari/537.36","Macintosh","Chrome","99.0.4844.83","OS X","10_15_7","1278.1000000238419","f","","","
                      <div class=""row"">

                          <div class=""column"">
                              <div class=""orange""></div>
                              <div class=""leftChoiceText"">
                                  <p style=""font-size: 32px""><b>F</b></p>
                              </div>
                          </div>

                          <div class=""column"">
                              <div class=""pink""></div>
                              <div class=""rightChoiceText"">
                                  <p style=""font-size: 32px""><b>J</b></p>
                              </div>
                          </div>

                      </div>

                      <div class=""centeredTop"">
                          Which colour do you<br>
                          predict will win?
                      </div>","O_4_2_P",""
"","","","","","html-keyboard-response","136","310529","0.0-2.0-6.0-4.0-1.0","44","1","2022-04-05 13:32:14","c79472ad15d8b617a4d57d5bf56a810f","125.63.20.238","Mozilla/5.0 (Macintosh; Intel Mac OS X 10_15_7) AppleWebKit/537.36 (KHTML, like Gecko) Chrome/99.0.4844.83 Safari/537.36","Macintosh","Chrome","99.0.4844.83","OS X","10_15_7","null","null","","","<p style=""font-size:64px;"">+</p>","O_4_2_P",""
"","","","","","html-keyboard-response","137","310935","0.0-2.0-7.0-0.0-0.0","44","1","2022-04-05 13:32:14","c79472ad15d8b617a4d57d5bf56a810f","125.63.20.238","Mozilla/5.0 (Macintosh; Intel Mac OS X 10_15_7) AppleWebKit/537.36 (KHTML, like Gecko) Chrome/99.0.4844.83 Safari/537.36","Macintosh","Chrome","99.0.4844.83","OS X","10_15_7","null","null","","","<p style=""font-size:64px;"">+</p>","Z_5_P",""
"","","","","","html-keyboard-response","138","312194","0.0-2.0-7.0-0.0-1.0","44","1","2022-04-05 13:32:14","c79472ad15d8b617a4d57d5bf56a810f","125.63.20.238","Mozilla/5.0 (Macintosh; Intel Mac OS X 10_15_7) AppleWebKit/537.36 (KHTML, like Gecko) Chrome/99.0.4844.83 Safari/537.36","Macintosh","Chrome","99.0.4844.83","OS X","10_15_7","null","null","","","
                        <div class=orange>
                        <div class=""centered"">
                            <p style=""font-size: 24px""><b>54%</b></p>
                        </div>","Z_5_P",""
"","","","","","html-keyboard-response","139","312597","0.0-2.0-7.0-0.0-0.1","44","1","2022-04-05 13:32:14","c79472ad15d8b617a4d57d5bf56a810f","125.63.20.238","Mozilla/5.0 (Macintosh; Intel Mac OS X 10_15_7) AppleWebKit/537.36 (KHTML, like Gecko) Chrome/99.0.4844.83 Safari/537.36","Macintosh","Chrome","99.0.4844.83","OS X","10_15_7","null","null","","","<p style=""font-size:64px;"">+</p>","Z_5_P",""
"","","","","","html-keyboard-response","140","313851","0.0-2.0-7.0-0.0-1.1","44","1","2022-04-05 13:32:14","c79472ad15d8b617a4d57d5bf56a810f","125.63.20.238","Mozilla/5.0 (Macintosh; Intel Mac OS X 10_15_7) AppleWebKit/537.36 (KHTML, like Gecko) Chrome/99.0.4844.83 Safari/537.36","Macintosh","Chrome","99.0.4844.83","OS X","10_15_7","null","null","","","
                        <div class=pink>
                        <div class=""centered"">
                            <p style=""font-size: 24px""><b>54%</b></p>
                        </div>","Z_5_P",""
"","","","","","html-keyboard-response","141","314253","0.0-2.0-7.0-0.0-0.2","44","1","2022-04-05 13:32:14","c79472ad15d8b617a4d57d5bf56a810f","125.63.20.238","Mozilla/5.0 (Macintosh; Intel Mac OS X 10_15_7) AppleWebKit/537.36 (KHTML, like Gecko) Chrome/99.0.4844.83 Safari/537.36","Macintosh","Chrome","99.0.4844.83","OS X","10_15_7","null","null","","","<p style=""font-size:64px;"">+</p>","Z_5_P",""
"","","","","","html-keyboard-response","142","315510","0.0-2.0-7.0-0.0-1.2","44","1","2022-04-05 13:32:14","c79472ad15d8b617a4d57d5bf56a810f","125.63.20.238","Mozilla/5.0 (Macintosh; Intel Mac OS X 10_15_7) AppleWebKit/537.36 (KHTML, like Gecko) Chrome/99.0.4844.83 Safari/537.36","Macintosh","Chrome","99.0.4844.83","OS X","10_15_7","null","null","","","
                        <div class=pink>
                        <div class=""centered"">
                            <p style=""font-size: 24px""><b>52%</b></p>
                        </div>","Z_5_P",""
"","","","","","html-keyboard-response","143","315914","0.0-2.0-7.0-0.0-0.3","44","1","2022-04-05 13:32:14","c79472ad15d8b617a4d57d5bf56a810f","125.63.20.238","Mozilla/5.0 (Macintosh; Intel Mac OS X 10_15_7) AppleWebKit/537.36 (KHTML, like Gecko) Chrome/99.0.4844.83 Safari/537.36","Macintosh","Chrome","99.0.4844.83","OS X","10_15_7","null","null","","","<p style=""font-size:64px;"">+</p>","Z_5_P",""
"","","","","","html-keyboard-response","144","317168","0.0-2.0-7.0-0.0-1.3","44","1","2022-04-05 13:32:14","c79472ad15d8b617a4d57d5bf56a810f","125.63.20.238","Mozilla/5.0 (Macintosh; Intel Mac OS X 10_15_7) AppleWebKit/537.36 (KHTML, like Gecko) Chrome/99.0.4844.83 Safari/537.36","Macintosh","Chrome","99.0.4844.83","OS X","10_15_7","null","null","","","
                        <div class=orange>
                        <div class=""centered"">
                            <p style=""font-size: 24px""><b>52%</b></p>
                        </div>","Z_5_P",""
"","","","","","html-keyboard-response","145","317572","0.0-2.0-7.0-0.0-0.4","44","1","2022-04-05 13:32:14","c79472ad15d8b617a4d57d5bf56a810f","125.63.20.238","Mozilla/5.0 (Macintosh; Intel Mac OS X 10_15_7) AppleWebKit/537.36 (KHTML, like Gecko) Chrome/99.0.4844.83 Safari/537.36","Macintosh","Chrome","99.0.4844.83","OS X","10_15_7","null","null","","","<p style=""font-size:64px;"">+</p>","Z_5_P",""
"","","","","","html-keyboard-response","146","318826","0.0-2.0-7.0-0.0-1.4","44","1","2022-04-05 13:32:14","c79472ad15d8b617a4d57d5bf56a810f","125.63.20.238","Mozilla/5.0 (Macintosh; Intel Mac OS X 10_15_7) AppleWebKit/537.36 (KHTML, like Gecko) Chrome/99.0.4844.83 Safari/537.36","Macintosh","Chrome","99.0.4844.83","OS X","10_15_7","null","null","","","
                        <div class=orange>
                        <div class=""centered"">
                            <p style=""font-size: 24px""><b>52%</b></p>
                        </div>","Z_5_P",""
"","","","","","html-keyboard-response","147","319230","0.0-2.0-7.0-0.0-0.5","44","1","2022-04-05 13:32:14","c79472ad15d8b617a4d57d5bf56a810f","125.63.20.238","Mozilla/5.0 (Macintosh; Intel Mac OS X 10_15_7) AppleWebKit/537.36 (KHTML, like Gecko) Chrome/99.0.4844.83 Safari/537.36","Macintosh","Chrome","99.0.4844.83","OS X","10_15_7","null","null","","","<p style=""font-size:64px;"">+</p>","Z_5_P",""
"","","","","","html-keyboard-response","148","320484","0.0-2.0-7.0-0.0-1.5","44","1","2022-04-05 13:32:14","c79472ad15d8b617a4d57d5bf56a810f","125.63.20.238","Mozilla/5.0 (Macintosh; Intel Mac OS X 10_15_7) AppleWebKit/537.36 (KHTML, like Gecko) Chrome/99.0.4844.83 Safari/537.36","Macintosh","Chrome","99.0.4844.83","OS X","10_15_7","null","null","","","
                        <div class=pink>
                        <div class=""centered"">
                            <p style=""font-size: 24px""><b>52%</b></p>
                        </div>","Z_5_P",""
"","","","","","html-keyboard-response","149","320893","0.0-2.0-7.0-1.0-0.0","44","1","2022-04-05 13:32:14","c79472ad15d8b617a4d57d5bf56a810f","125.63.20.238","Mozilla/5.0 (Macintosh; Intel Mac OS X 10_15_7) AppleWebKit/537.36 (KHTML, like Gecko) Chrome/99.0.4844.83 Safari/537.36","Macintosh","Chrome","99.0.4844.83","OS X","10_15_7","null","null","","","<p style=""font-size:64px;"">+</p>","Z_5_P",""
"","","","","","html-keyboard-response","150","322147","0.0-2.0-7.0-1.0-1.0","44","1","2022-04-05 13:32:14","c79472ad15d8b617a4d57d5bf56a810f","125.63.20.238","Mozilla/5.0 (Macintosh; Intel Mac OS X 10_15_7) AppleWebKit/537.36 (KHTML, like Gecko) Chrome/99.0.4844.83 Safari/537.36","Macintosh","Chrome","99.0.4844.83","OS X","10_15_7","null","null","","","
                        <div class=""pink"">
                        <div class=""centered"">
                            <p style=""font-size: 24px""><b>50%</b></p>
                        </div>","Z_5_P",""
"","","","","","html-slider-response","151","324523","0.0-2.0-7.0-2.0","44","1","2022-04-05 13:32:14","c79472ad15d8b617a4d57d5bf56a810f","125.63.20.238","Mozilla/5.0 (Macintosh; Intel Mac OS X 10_15_7) AppleWebKit/537.36 (KHTML, like Gecko) Chrome/99.0.4844.83 Safari/537.36","Macintosh","Chrome","99.0.4844.83","OS X","10_15_7","2372.300000011921","39","","","<div style=""width: 500px; height: 100px;""><p>Place your bid for more information.</p></div>","infoBid","24"
"","","","","","html-keyboard-response","152","324931","0.0-2.0-7.0-3.0-0.0","44","1","2022-04-05 13:32:14","c79472ad15d8b617a4d57d5bf56a810f","125.63.20.238","Mozilla/5.0 (Macintosh; Intel Mac OS X 10_15_7) AppleWebKit/537.36 (KHTML, like Gecko) Chrome/99.0.4844.83 Safari/537.36","Macintosh","Chrome","99.0.4844.83","OS X","10_15_7","null","null","","","<p style=""font-size:64px;"">+</p>","Z_5_P",""
"","","","","","html-keyboard-response","153","326188","0.0-2.0-7.0-3.0-1.0","44","1","2022-04-05 13:32:14","c79472ad15d8b617a4d57d5bf56a810f","125.63.20.238","Mozilla/5.0 (Macintosh; Intel Mac OS X 10_15_7) AppleWebKit/537.36 (KHTML, like Gecko) Chrome/99.0.4844.83 Safari/537.36","Macintosh","Chrome","99.0.4844.83","OS X","10_15_7","null","null","","","<div class=""grey"">
                <div class=""centered"">
                    <p style=""font-size: 24px""><b>???</b></p>
                </div>","Z_5_P",""
"","","","","","html-keyboard-response","154","326901","0.0-2.0-7.0-4.0-0.0","44","1","2022-04-05 13:32:14","c79472ad15d8b617a4d57d5bf56a810f","125.63.20.238","Mozilla/5.0 (Macintosh; Intel Mac OS X 10_15_7) AppleWebKit/537.36 (KHTML, like Gecko) Chrome/99.0.4844.83 Safari/537.36","Macintosh","Chrome","99.0.4844.83","OS X","10_15_7","709.8000000119209","f","","","
                      <div class=""row"">

                          <div class=""column"">
                              <div class=""orange""></div>
                              <div class=""leftChoiceText"">
                                  <p style=""font-size: 32px""><b>F</b></p>
                              </div>
                          </div>

                          <div class=""column"">
                              <div class=""pink""></div>
                              <div class=""rightChoiceText"">
                                  <p style=""font-size: 32px""><b>J</b></p>
                              </div>
                          </div>

                      </div>

                      <div class=""centeredTop"">
                          Which colour do you<br>
                          predict will win?
                      </div>","Z_5_P",""
"","","","","","html-keyboard-response","155","328406","0.0-2.0-7.0-4.0-1.0","44","1","2022-04-05 13:32:14","c79472ad15d8b617a4d57d5bf56a810f","125.63.20.238","Mozilla/5.0 (Macintosh; Intel Mac OS X 10_15_7) AppleWebKit/537.36 (KHTML, like Gecko) Chrome/99.0.4844.83 Safari/537.36","Macintosh","Chrome","99.0.4844.83","OS X","10_15_7","null","null","","","<p style=""font-size:64px;"">+</p>","Z_5_P",""
"","","","","","html-keyboard-response","156","330590","0.0-2.0-8.0","44","1","2022-04-05 13:32:14","c79472ad15d8b617a4d57d5bf56a810f","125.63.20.238","Mozilla/5.0 (Macintosh; Intel Mac OS X 10_15_7) AppleWebKit/537.36 (KHTML, like Gecko) Chrome/99.0.4844.83 Safari/537.36","Macintosh","Chrome","99.0.4844.83","OS X","10_15_7","2180.599999964237"," ","","","This is the end of the practice trials.<br><br>
        Press spacebar to begin the experiment.","",""
"","","","","","html-keyboard-response","157","330995","0.0-2.0-9.0-0.0-0.0","44","1","2022-04-05 13:32:14","c79472ad15d8b617a4d57d5bf56a810f","125.63.20.238","Mozilla/5.0 (Macintosh; Intel Mac OS X 10_15_7) AppleWebKit/537.36 (KHTML, like Gecko) Chrome/99.0.4844.83 Safari/537.36","Macintosh","Chrome","99.0.4844.83","OS X","10_15_7","null","null","","","<p style=""font-size:64px;"">+</p>","P_2_2_O",""
"","","","","","html-keyboard-response","158","332250","0.0-2.0-9.0-0.0-1.0","44","1","2022-04-05 13:32:14","c79472ad15d8b617a4d57d5bf56a810f","125.63.20.238","Mozilla/5.0 (Macintosh; Intel Mac OS X 10_15_7) AppleWebKit/537.36 (KHTML, like Gecko) Chrome/99.0.4844.83 Safari/537.36","Macintosh","Chrome","99.0.4844.83","OS X","10_15_7","null","null","","","
                        <div class=pink>
                        <div class=""centered"">
                            <p style=""font-size: 24px""><b>53%</b></p>
                        </div>","P_2_2_O",""
"","","","","","html-keyboard-response","159","332656","0.0-2.0-9.0-0.0-0.1","44","1","2022-04-05 13:32:14","c79472ad15d8b617a4d57d5bf56a810f","125.63.20.238","Mozilla/5.0 (Macintosh; Intel Mac OS X 10_15_7) AppleWebKit/537.36 (KHTML, like Gecko) Chrome/99.0.4844.83 Safari/537.36","Macintosh","Chrome","99.0.4844.83","OS X","10_15_7","null","null","","","<p style=""font-size:64px;"">+</p>","P_2_2_O",""
"","","","","","html-keyboard-response","160","333910","0.0-2.0-9.0-0.0-1.1","44","1","2022-04-05 13:32:14","c79472ad15d8b617a4d57d5bf56a810f","125.63.20.238","Mozilla/5.0 (Macintosh; Intel Mac OS X 10_15_7) AppleWebKit/537.36 (KHTML, like Gecko) Chrome/99.0.4844.83 Safari/537.36","Macintosh","Chrome","99.0.4844.83","OS X","10_15_7","null","null","","","
                        <div class=orange>
                        <div class=""centered"">
                            <p style=""font-size: 24px""><b>52%</b></p>
                        </div>","P_2_2_O",""
"","","","","","html-keyboard-response","161","334314","0.0-2.0-9.0-0.0-0.2","44","1","2022-04-05 13:32:14","c79472ad15d8b617a4d57d5bf56a810f","125.63.20.238","Mozilla/5.0 (Macintosh; Intel Mac OS X 10_15_7) AppleWebKit/537.36 (KHTML, like Gecko) Chrome/99.0.4844.83 Safari/537.36","Macintosh","Chrome","99.0.4844.83","OS X","10_15_7","null","null","","","<p style=""font-size:64px;"">+</p>","P_2_2_O",""
"","","","","","html-keyboard-response","162","335568","0.0-2.0-9.0-0.0-1.2","44","1","2022-04-05 13:32:14","c79472ad15d8b617a4d57d5bf56a810f","125.63.20.238","Mozilla/5.0 (Macintosh; Intel Mac OS X 10_15_7) AppleWebKit/537.36 (KHTML, like Gecko) Chrome/99.0.4844.83 Safari/537.36","Macintosh","Chrome","99.0.4844.83","OS X","10_15_7","null","null","","","
                        <div class=orange>
                        <div class=""centered"">
                            <p style=""font-size: 24px""><b>52%</b></p>
                        </div>","P_2_2_O",""
"","","","","","html-keyboard-response","163","335973","0.0-2.0-9.0-0.0-0.3","44","1","2022-04-05 13:32:14","c79472ad15d8b617a4d57d5bf56a810f","125.63.20.238","Mozilla/5.0 (Macintosh; Intel Mac OS X 10_15_7) AppleWebKit/537.36 (KHTML, like Gecko) Chrome/99.0.4844.83 Safari/537.36","Macintosh","Chrome","99.0.4844.83","OS X","10_15_7","null","null","","","<p style=""font-size:64px;"">+</p>","P_2_2_O",""
"","","","","","html-keyboard-response","164","337231","0.0-2.0-9.0-0.0-1.3","44","1","2022-04-05 13:32:14","c79472ad15d8b617a4d57d5bf56a810f","125.63.20.238","Mozilla/5.0 (Macintosh; Intel Mac OS X 10_15_7) AppleWebKit/537.36 (KHTML, like Gecko) Chrome/99.0.4844.83 Safari/537.36","Macintosh","Chrome","99.0.4844.83","OS X","10_15_7","null","null","","","
                        <div class=pink>
                        <div class=""centered"">
                            <p style=""font-size: 24px""><b>52%</b></p>
                        </div>","P_2_2_O",""
"","","","","","html-keyboard-response","165","337635","0.0-2.0-9.0-0.0-0.4","44","1","2022-04-05 13:32:14","c79472ad15d8b617a4d57d5bf56a810f","125.63.20.238","Mozilla/5.0 (Macintosh; Intel Mac OS X 10_15_7) AppleWebKit/537.36 (KHTML, like Gecko) Chrome/99.0.4844.83 Safari/537.36","Macintosh","Chrome","99.0.4844.83","OS X","10_15_7","null","null","","","<p style=""font-size:64px;"">+</p>","P_2_2_O",""
"","","","","","html-keyboard-response","166","338889","0.0-2.0-9.0-0.0-1.4","44","1","2022-04-05 13:32:14","c79472ad15d8b617a4d57d5bf56a810f","125.63.20.238","Mozilla/5.0 (Macintosh; Intel Mac OS X 10_15_7) AppleWebKit/537.36 (KHTML, like Gecko) Chrome/99.0.4844.83 Safari/537.36","Macintosh","Chrome","99.0.4844.83","OS X","10_15_7","null","null","","","
                        <div class=orange>
                        <div class=""centered"">
                            <p style=""font-size: 24px""><b>54%</b></p>
                        </div>","P_2_2_O",""
"","","","","","html-keyboard-response","167","339293","0.0-2.0-9.0-0.0-0.5","44","1","2022-04-05 13:32:14","c79472ad15d8b617a4d57d5bf56a810f","125.63.20.238","Mozilla/5.0 (Macintosh; Intel Mac OS X 10_15_7) AppleWebKit/537.36 (KHTML, like Gecko) Chrome/99.0.4844.83 Safari/537.36","Macintosh","Chrome","99.0.4844.83","OS X","10_15_7","null","null","","","<p style=""font-size:64px;"">+</p>","P_2_2_O",""
"","","","","","html-keyboard-response","168","340551","0.0-2.0-9.0-0.0-1.5","44","1","2022-04-05 13:32:14","c79472ad15d8b617a4d57d5bf56a810f","125.63.20.238","Mozilla/5.0 (Macintosh; Intel Mac OS X 10_15_7) AppleWebKit/537.36 (KHTML, like Gecko) Chrome/99.0.4844.83 Safari/537.36","Macintosh","Chrome","99.0.4844.83","OS X","10_15_7","null","null","","","
                        <div class=pink>
                        <div class=""centered"">
                            <p style=""font-size: 24px""><b>55%</b></p>
                        </div>","P_2_2_O",""
"","","","","","html-keyboard-response","169","340958","0.0-2.0-9.0-1.0-0.0","44","1","2022-04-05 13:32:14","c79472ad15d8b617a4d57d5bf56a810f","125.63.20.238","Mozilla/5.0 (Macintosh; Intel Mac OS X 10_15_7) AppleWebKit/537.36 (KHTML, like Gecko) Chrome/99.0.4844.83 Safari/537.36","Macintosh","Chrome","99.0.4844.83","OS X","10_15_7","null","null","","","<p style=""font-size:64px;"">+</p>","P_2_2_O",""
"","","","","","html-keyboard-response","170","342214","0.0-2.0-9.0-1.0-1.0","44","1","2022-04-05 13:32:14","c79472ad15d8b617a4d57d5bf56a810f","125.63.20.238","Mozilla/5.0 (Macintosh; Intel Mac OS X 10_15_7) AppleWebKit/537.36 (KHTML, like Gecko) Chrome/99.0.4844.83 Safari/537.36","Macintosh","Chrome","99.0.4844.83","OS X","10_15_7","null","null","","","
                        <div class=""orange"">
                        <div class=""centered"">
                            <p style=""font-size: 24px""><b>50%</b></p>
                        </div>","P_2_2_O",""
"","","","","","html-slider-response","171","360058","0.0-2.0-9.0-2.0","44","1","2022-04-05 13:32:14","c79472ad15d8b617a4d57d5bf56a810f","125.63.20.238","Mozilla/5.0 (Macintosh; Intel Mac OS X 10_15_7) AppleWebKit/537.36 (KHTML, like Gecko) Chrome/99.0.4844.83 Safari/537.36","Macintosh","Chrome","99.0.4844.83","OS X","10_15_7","17839.69999998808","43","","","<div style=""width: 500px; height: 100px;""><p>Place your bid for more information.</p></div>","infoBid","43"
"","","","","","html-keyboard-response","172","360464","0.0-2.0-9.0-3.0-0.0","44","1","2022-04-05 13:32:14","c79472ad15d8b617a4d57d5bf56a810f","125.63.20.238","Mozilla/5.0 (Macintosh; Intel Mac OS X 10_15_7) AppleWebKit/537.36 (KHTML, like Gecko) Chrome/99.0.4844.83 Safari/537.36","Macintosh","Chrome","99.0.4844.83","OS X","10_15_7","null","null","","","<p style=""font-size:64px;"">+</p>","P_2_2_O",""
"","","","","","html-keyboard-response","173","361723","0.0-2.0-9.0-3.0-1.0","44","1","2022-04-05 13:32:14","c79472ad15d8b617a4d57d5bf56a810f","125.63.20.238","Mozilla/5.0 (Macintosh; Intel Mac OS X 10_15_7) AppleWebKit/537.36 (KHTML, like Gecko) Chrome/99.0.4844.83 Safari/537.36","Macintosh","Chrome","99.0.4844.83","OS X","10_15_7","null","null","","","<div class=pink>
                <div class=""centered"">
                    <p style=""font-size: 24px""><b>52%</b></p>
                </div>","P_2_2_O",""
"","","","","","html-keyboard-response","174","373566","0.0-2.0-9.0-4.0-0.0","44","1","2022-04-05 13:32:14","c79472ad15d8b617a4d57d5bf56a810f","125.63.20.238","Mozilla/5.0 (Macintosh; Intel Mac OS X 10_15_7) AppleWebKit/537.36 (KHTML, like Gecko) Chrome/99.0.4844.83 Safari/537.36","Macintosh","Chrome","99.0.4844.83","OS X","10_15_7","11840.5","j","","","
                      <div class=""row"">

                          <div class=""column"">
                              <div class=""orange""></div>
                              <div class=""leftChoiceText"">
                                  <p style=""font-size: 32px""><b>F</b></p>
                              </div>
                          </div>

                          <div class=""column"">
                              <div class=""pink""></div>
                              <div class=""rightChoiceText"">
                                  <p style=""font-size: 32px""><b>J</b></p>
                              </div>
                          </div>

                      </div>

                      <div class=""centeredTop"">
                          Which colour do you<br>
                          predict will win?
                      </div>","P_2_2_O",""
"","","","","","html-keyboard-response","175","375073","0.0-2.0-9.0-4.0-1.0","44","1","2022-04-05 13:32:14","c79472ad15d8b617a4d57d5bf56a810f","125.63.20.238","Mozilla/5.0 (Macintosh; Intel Mac OS X 10_15_7) AppleWebKit/537.36 (KHTML, like Gecko) Chrome/99.0.4844.83 Safari/537.36","Macintosh","Chrome","99.0.4844.83","OS X","10_15_7","null","null","","","<p style=""font-size:64px;"">+</p>","P_2_2_O",""
"","","","","","html-keyboard-response","176","375476","0.0-2.0-10.0-0.0-0.0","44","1","2022-04-05 13:32:14","c79472ad15d8b617a4d57d5bf56a810f","125.63.20.238","Mozilla/5.0 (Macintosh; Intel Mac OS X 10_15_7) AppleWebKit/537.36 (KHTML, like Gecko) Chrome/99.0.4844.83 Safari/537.36","Macintosh","Chrome","99.0.4844.83","OS X","10_15_7","null","null","","","<p style=""font-size:64px;"">+</p>","O_2_3_O",""
"","","","","","html-keyboard-response","177","376735","0.0-2.0-10.0-0.0-1.0","44","1","2022-04-05 13:32:14","c79472ad15d8b617a4d57d5bf56a810f","125.63.20.238","Mozilla/5.0 (Macintosh; Intel Mac OS X 10_15_7) AppleWebKit/537.36 (KHTML, like Gecko) Chrome/99.0.4844.83 Safari/537.36","Macintosh","Chrome","99.0.4844.83","OS X","10_15_7","null","null","","","
                        <div class=orange>
                        <div class=""centered"">
                            <p style=""font-size: 24px""><b>53%</b></p>
                        </div>","O_2_3_O",""
"","","","","","html-keyboard-response","178","377140","0.0-2.0-10.0-0.0-0.1","44","1","2022-04-05 13:32:14","c79472ad15d8b617a4d57d5bf56a810f","125.63.20.238","Mozilla/5.0 (Macintosh; Intel Mac OS X 10_15_7) AppleWebKit/537.36 (KHTML, like Gecko) Chrome/99.0.4844.83 Safari/537.36","Macintosh","Chrome","99.0.4844.83","OS X","10_15_7","null","null","","","<p style=""font-size:64px;"">+</p>","O_2_3_O",""
"","","","","","html-keyboard-response","179","378398","0.0-2.0-10.0-0.0-1.1","44","1","2022-04-05 13:32:14","c79472ad15d8b617a4d57d5bf56a810f","125.63.20.238","Mozilla/5.0 (Macintosh; Intel Mac OS X 10_15_7) AppleWebKit/537.36 (KHTML, like Gecko) Chrome/99.0.4844.83 Safari/537.36","Macintosh","Chrome","99.0.4844.83","OS X","10_15_7","null","null","","","
                        <div class=orange>
                        <div class=""centered"">
                            <p style=""font-size: 24px""><b>54%</b></p>
                        </div>","O_2_3_O",""
"","","","","","html-keyboard-response","180","378801","0.0-2.0-10.0-0.0-0.2","44","1","2022-04-05 13:32:14","c79472ad15d8b617a4d57d5bf56a810f","125.63.20.238","Mozilla/5.0 (Macintosh; Intel Mac OS X 10_15_7) AppleWebKit/537.36 (KHTML, like Gecko) Chrome/99.0.4844.83 Safari/537.36","Macintosh","Chrome","99.0.4844.83","OS X","10_15_7","null","null","","","<p style=""font-size:64px;"">+</p>","O_2_3_O",""
"","","","","","html-keyboard-response","181","380057","0.0-2.0-10.0-0.0-1.2","44","1","2022-04-05 13:32:14","c79472ad15d8b617a4d57d5bf56a810f","125.63.20.238","Mozilla/5.0 (Macintosh; Intel Mac OS X 10_15_7) AppleWebKit/537.36 (KHTML, like Gecko) Chrome/99.0.4844.83 Safari/537.36","Macintosh","Chrome","99.0.4844.83","OS X","10_15_7","null","null","","","
                        <div class=orange>
                        <div class=""centered"">
                            <p style=""font-size: 24px""><b>53%</b></p>
                        </div>","O_2_3_O",""
"","","","","","html-keyboard-response","182","380465","0.0-2.0-10.0-0.0-0.3","44","1","2022-04-05 13:32:14","c79472ad15d8b617a4d57d5bf56a810f","125.63.20.238","Mozilla/5.0 (Macintosh; Intel Mac OS X 10_15_7) AppleWebKit/537.36 (KHTML, like Gecko) Chrome/99.0.4844.83 Safari/537.36","Macintosh","Chrome","99.0.4844.83","OS X","10_15_7","null","null","","","<p style=""font-size:64px;"">+</p>","O_2_3_O",""
"","","","","","html-keyboard-response","183","381723","0.0-2.0-10.0-0.0-1.3","44","1","2022-04-05 13:32:14","c79472ad15d8b617a4d57d5bf56a810f","125.63.20.238","Mozilla/5.0 (Macintosh; Intel Mac OS X 10_15_7) AppleWebKit/537.36 (KHTML, like Gecko) Chrome/99.0.4844.83 Safari/537.36","Macintosh","Chrome","99.0.4844.83","OS X","10_15_7","null","null","","","
                        <div class=pink>
                        <div class=""centered"">
                            <p style=""font-size: 24px""><b>52%</b></p>
                        </div>","O_2_3_O",""
"","","","","","html-keyboard-response","184","382131","0.0-2.0-10.0-0.0-0.4","44","1","2022-04-05 13:32:14","c79472ad15d8b617a4d57d5bf56a810f","125.63.20.238","Mozilla/5.0 (Macintosh; Intel Mac OS X 10_15_7) AppleWebKit/537.36 (KHTML, like Gecko) Chrome/99.0.4844.83 Safari/537.36","Macintosh","Chrome","99.0.4844.83","OS X","10_15_7","null","null","","","<p style=""font-size:64px;"">+</p>","O_2_3_O",""
"","","","","","html-keyboard-response","185","383390","0.0-2.0-10.0-0.0-1.4","44","1","2022-04-05 13:32:14","c79472ad15d8b617a4d57d5bf56a810f","125.63.20.238","Mozilla/5.0 (Macintosh; Intel Mac OS X 10_15_7) AppleWebKit/537.36 (KHTML, like Gecko) Chrome/99.0.4844.83 Safari/537.36","Macintosh","Chrome","99.0.4844.83","OS X","10_15_7","null","null","","","
                        <div class=pink>
                        <div class=""centered"">
                            <p style=""font-size: 24px""><b>52%</b></p>
                        </div>","O_2_3_O",""
"","","","","","html-keyboard-response","186","383801","0.0-2.0-10.0-0.0-0.5","44","1","2022-04-05 13:32:14","c79472ad15d8b617a4d57d5bf56a810f","125.63.20.238","Mozilla/5.0 (Macintosh; Intel Mac OS X 10_15_7) AppleWebKit/537.36 (KHTML, like Gecko) Chrome/99.0.4844.83 Safari/537.36","Macintosh","Chrome","99.0.4844.83","OS X","10_15_7","null","null","","","<p style=""font-size:64px;"">+</p>","O_2_3_O",""
"","","","","","html-keyboard-response","187","385060","0.0-2.0-10.0-0.0-1.5","44","1","2022-04-05 13:32:14","c79472ad15d8b617a4d57d5bf56a810f","125.63.20.238","Mozilla/5.0 (Macintosh; Intel Mac OS X 10_15_7) AppleWebKit/537.36 (KHTML, like Gecko) Chrome/99.0.4844.83 Safari/537.36","Macintosh","Chrome","99.0.4844.83","OS X","10_15_7","null","null","","","
                        <div class=pink>
                        <div class=""centered"">
                            <p style=""font-size: 24px""><b>54%</b></p>
                        </div>","O_2_3_O",""
"","","","","","html-keyboard-response","188","385465","0.0-2.0-10.0-1.0-0.0","44","1","2022-04-05 13:32:14","c79472ad15d8b617a4d57d5bf56a810f","125.63.20.238","Mozilla/5.0 (Macintosh; Intel Mac OS X 10_15_7) AppleWebKit/537.36 (KHTML, like Gecko) Chrome/99.0.4844.83 Safari/537.36","Macintosh","Chrome","99.0.4844.83","OS X","10_15_7","null","null","","","<p style=""font-size:64px;"">+</p>","O_2_3_O",""
"","","","","","html-keyboard-response","189","386718","0.0-2.0-10.0-1.0-1.0","44","1","2022-04-05 13:32:14","c79472ad15d8b617a4d57d5bf56a810f","125.63.20.238","Mozilla/5.0 (Macintosh; Intel Mac OS X 10_15_7) AppleWebKit/537.36 (KHTML, like Gecko) Chrome/99.0.4844.83 Safari/537.36","Macintosh","Chrome","99.0.4844.83","OS X","10_15_7","null","null","","","
                        <div class=""orange"">
                        <div class=""centered"">
                            <p style=""font-size: 24px""><b>50%</b></p>
                        </div>","O_2_3_O",""
"","","","","","html-slider-response","190","400589","0.0-2.0-10.0-2.0","44","1","2022-04-05 13:32:14","c79472ad15d8b617a4d57d5bf56a810f","125.63.20.238","Mozilla/5.0 (Macintosh; Intel Mac OS X 10_15_7) AppleWebKit/537.36 (KHTML, like Gecko) Chrome/99.0.4844.83 Safari/537.36","Macintosh","Chrome","99.0.4844.83","OS X","10_15_7","13866.5","34","","","<div style=""width: 500px; height: 100px;""><p>Place your bid for more information.</p></div>","infoBid","9"
"","","","","","html-keyboard-response","191","400995","0.0-2.0-10.0-3.0-0.0","44","1","2022-04-05 13:32:14","c79472ad15d8b617a4d57d5bf56a810f","125.63.20.238","Mozilla/5.0 (Macintosh; Intel Mac OS X 10_15_7) AppleWebKit/537.36 (KHTML, like Gecko) Chrome/99.0.4844.83 Safari/537.36","Macintosh","Chrome","99.0.4844.83","OS X","10_15_7","null","null","","","<p style=""font-size:64px;"">+</p>","O_2_3_O",""
"","","","","","html-keyboard-response","192","402252","0.0-2.0-10.0-3.0-1.0","44","1","2022-04-05 13:32:14","c79472ad15d8b617a4d57d5bf56a810f","125.63.20.238","Mozilla/5.0 (Macintosh; Intel Mac OS X 10_15_7) AppleWebKit/537.36 (KHTML, like Gecko) Chrome/99.0.4844.83 Safari/537.36","Macintosh","Chrome","99.0.4844.83","OS X","10_15_7","null","null","","","<div class=""grey"">
                <div class=""centered"">
                    <p style=""font-size: 24px""><b>???</b></p>
                </div>","O_2_3_O",""
