"success","timeout","failed_images","failed_audio","failed_video","trial_type","trial_index","time_elapsed","internal_node_id","run_id","condition","recorded_at","source_code_version","ip","user_agent","device","browser","browser_version","platform","platform_version","rt","response","question_order","view_history","stimulus","trial_name","slider_start"
"true","false","[]","[]","[]","preload","0","37","0.0-0.0","43","1","2022-04-05 08:11:26","c79472ad15d8b617a4d57d5bf56a810f","128.250.0.105","Mozilla/5.0 (Macintosh; Intel Mac OS X 10_14_6) AppleWebKit/537.36 (KHTML, like Gecko) Chrome/99.0.4844.84 Safari/537.36","Macintosh","Chrome","99.0.4844.84","OS X","10_14_6","","","","","","",""
"","","","","","survey-multi-choice","1","2893","0.0-1.0-0.0","43","1","2022-04-05 08:11:26","c79472ad15d8b617a4d57d5bf56a810f","128.250.0.105","Mozilla/5.0 (Macintosh; Intel Mac OS X 10_14_6) AppleWebKit/537.36 (KHTML, like Gecko) Chrome/99.0.4844.84 Safari/537.36","Macintosh","Chrome","99.0.4844.84","OS X","10_14_6","2853.900000002235","{""Gender"":""Female""}","[0]","","","",""
"","","","","","survey-text","2","6853","0.0-1.0-1.0","43","1","2022-04-05 08:11:26","c79472ad15d8b617a4d57d5bf56a810f","128.250.0.105","Mozilla/5.0 (Macintosh; Intel Mac OS X 10_14_6) AppleWebKit/537.36 (KHTML, like Gecko) Chrome/99.0.4844.84 Safari/537.36","Macintosh","Chrome","99.0.4844.84","OS X","10_14_6","3957.5","{""Age"":""20""}","","","","",""
"","","","","","instructions","3","312949","0.0-1.0-2.0","43","1","2022-04-05 08:11:26","c79472ad15d8b617a4d57d5bf56a810f","128.250.0.105","Mozilla/5.0 (Macintosh; Intel Mac OS X 10_14_6) AppleWebKit/537.36 (KHTML, like Gecko) Chrome/99.0.4844.84 Safari/537.36","Macintosh","Chrome","99.0.4844.84","OS X","10_14_6","306094.8999999985","","","[{""page_index"":0,""viewing_time"":4294.89999999851},{""page_index"":1,""viewing_time"":24047.5},{""page_index"":2,""viewing_time"":55544},{""page_index"":3,""viewing_time"":5720.10000000149},{""page_index"":4,""viewing_time"":24031.89999999851},{""page_index"":5,""viewing_time"":12480.10000000149},{""page_index"":6,""viewing_time"":8896},{""page_index"":7,""viewing_time"":10191.800000000745},{""page_index"":8,""viewing_time"":5240.099999997765},{""page_index"":9,""viewing_time"":28632},{""page_index"":10,""viewing_time"":4120.10000000149},{""page_index"":11,""viewing_time"":95007.89999999851},{""page_index"":12,""viewing_time"":25184},{""page_index"":13,""viewing_time"":2703.900000002235}]","","",""
"","","","","","html-keyboard-response","4","313355","0.0-2.0-0.0-0.0-0.0","43","1","2022-04-05 08:11:26","c79472ad15d8b617a4d57d5bf56a810f","128.250.0.105","Mozilla/5.0 (Macintosh; Intel Mac OS X 10_14_6) AppleWebKit/537.36 (KHTML, like Gecko) Chrome/99.0.4844.84 Safari/537.36","Macintosh","Chrome","99.0.4844.84","OS X","10_14_6","null","null","","","<p style=""font-size:64px;"">+</p>","P_6_1_O",""
"","","","","","html-keyboard-response","5","314609","0.0-2.0-0.0-0.0-1.0","43","1","2022-04-05 08:11:26","c79472ad15d8b617a4d57d5bf56a810f","128.250.0.105","Mozilla/5.0 (Macintosh; Intel Mac OS X 10_14_6) AppleWebKit/537.36 (KHTML, like Gecko) Chrome/99.0.4844.84 Safari/537.36","Macintosh","Chrome","99.0.4844.84","OS X","10_14_6","null","null","","","
                        <div class=orange>
                        <div class=""centered"">
                            <p style=""font-size: 24px""><b>52%</b></p>
                        </div>","P_6_1_O",""
"","","","","","html-keyboard-response","6","315014","0.0-2.0-0.0-0.0-0.1","43","1","2022-04-05 08:11:26","c79472ad15d8b617a4d57d5bf56a810f","128.250.0.105","Mozilla/5.0 (Macintosh; Intel Mac OS X 10_14_6) AppleWebKit/537.36 (KHTML, like Gecko) Chrome/99.0.4844.84 Safari/537.36","Macintosh","Chrome","99.0.4844.84","OS X","10_14_6","null","null","","","<p style=""font-size:64px;"">+</p>","P_6_1_O",""
"","","","","","html-keyboard-response","7","316267","0.0-2.0-0.0-0.0-1.1","43","1","2022-04-05 08:11:26","c79472ad15d8b617a4d57d5bf56a810f","128.250.0.105","Mozilla/5.0 (Macintosh; Intel Mac OS X 10_14_6) AppleWebKit/537.36 (KHTML, like Gecko) Chrome/99.0.4844.84 Safari/537.36","Macintosh","Chrome","99.0.4844.84","OS X","10_14_6","null","null","","","
                        <div class=pink>
                        <div class=""centered"">
                            <p style=""font-size: 24px""><b>53%</b></p>
                        </div>","P_6_1_O",""
"","","","","","html-keyboard-response","8","316673","0.0-2.0-0.0-0.0-0.2","43","1","2022-04-05 08:11:26","c79472ad15d8b617a4d57d5bf56a810f","128.250.0.105","Mozilla/5.0 (Macintosh; Intel Mac OS X 10_14_6) AppleWebKit/537.36 (KHTML, like Gecko) Chrome/99.0.4844.84 Safari/537.36","Macintosh","Chrome","99.0.4844.84","OS X","10_14_6","null","null","","","<p style=""font-size:64px;"">+</p>","P_6_1_O",""
"","","","","","html-keyboard-response","9","317926","0.0-2.0-0.0-0.0-1.2","43","1","2022-04-05 08:11:26","c79472ad15d8b617a4d57d5bf56a810f","128.250.0.105","Mozilla/5.0 (Macintosh; Intel Mac OS X 10_14_6) AppleWebKit/537.36 (KHTML, like Gecko) Chrome/99.0.4844.84 Safari/537.36","Macintosh","Chrome","99.0.4844.84","OS X","10_14_6","null","null","","","
                        <div class=pink>
                        <div class=""centered"">
                            <p style=""font-size: 24px""><b>54%</b></p>
                        </div>","P_6_1_O",""
"","","","","","html-keyboard-response","10","318331","0.0-2.0-0.0-0.0-0.3","43","1","2022-04-05 08:11:26","c79472ad15d8b617a4d57d5bf56a810f","128.250.0.105","Mozilla/5.0 (Macintosh; Intel Mac OS X 10_14_6) AppleWebKit/537.36 (KHTML, like Gecko) Chrome/99.0.4844.84 Safari/537.36","Macintosh","Chrome","99.0.4844.84","OS X","10_14_6","null","null","","","<p style=""font-size:64px;"">+</p>","P_6_1_O",""
"","","","","","html-keyboard-response","11","319585","0.0-2.0-0.0-0.0-1.3","43","1","2022-04-05 08:11:26","c79472ad15d8b617a4d57d5bf56a810f","128.250.0.105","Mozilla/5.0 (Macintosh; Intel Mac OS X 10_14_6) AppleWebKit/537.36 (KHTML, like Gecko) Chrome/99.0.4844.84 Safari/537.36","Macintosh","Chrome","99.0.4844.84","OS X","10_14_6","null","null","","","
                        <div class=orange>
                        <div class=""centered"">
                            <p style=""font-size: 24px""><b>51%</b></p>
                        </div>","P_6_1_O",""
"","","","","","html-keyboard-response","12","319990","0.0-2.0-0.0-0.0-0.4","43","1","2022-04-05 08:11:26","c79472ad15d8b617a4d57d5bf56a810f","128.250.0.105","Mozilla/5.0 (Macintosh; Intel Mac OS X 10_14_6) AppleWebKit/537.36 (KHTML, like Gecko) Chrome/99.0.4844.84 Safari/537.36","Macintosh","Chrome","99.0.4844.84","OS X","10_14_6","null","null","","","<p style=""font-size:64px;"">+</p>","P_6_1_O",""
"","","","","","html-keyboard-response","13","321243","0.0-2.0-0.0-0.0-1.4","43","1","2022-04-05 08:11:26","c79472ad15d8b617a4d57d5bf56a810f","128.250.0.105","Mozilla/5.0 (Macintosh; Intel Mac OS X 10_14_6) AppleWebKit/537.36 (KHTML, like Gecko) Chrome/99.0.4844.84 Safari/537.36","Macintosh","Chrome","99.0.4844.84","OS X","10_14_6","null","null","","","
                        <div class=orange>
                        <div class=""centered"">
                            <p style=""font-size: 24px""><b>51%</b></p>
                        </div>","P_6_1_O",""
"","","","","","html-keyboard-response","14","321648","0.0-2.0-0.0-0.0-0.5","43","1","2022-04-05 08:11:26","c79472ad15d8b617a4d57d5bf56a810f","128.250.0.105","Mozilla/5.0 (Macintosh; Intel Mac OS X 10_14_6) AppleWebKit/537.36 (KHTML, like Gecko) Chrome/99.0.4844.84 Safari/537.36","Macintosh","Chrome","99.0.4844.84","OS X","10_14_6","null","null","","","<p style=""font-size:64px;"">+</p>","P_6_1_O",""
"","","","","","html-keyboard-response","15","322902","0.0-2.0-0.0-0.0-1.5","43","1","2022-04-05 08:11:26","c79472ad15d8b617a4d57d5bf56a810f","128.250.0.105","Mozilla/5.0 (Macintosh; Intel Mac OS X 10_14_6) AppleWebKit/537.36 (KHTML, like Gecko) Chrome/99.0.4844.84 Safari/537.36","Macintosh","Chrome","99.0.4844.84","OS X","10_14_6","null","null","","","
                        <div class=pink>
                        <div class=""centered"">
                            <p style=""font-size: 24px""><b>53%</b></p>
                        </div>","P_6_1_O",""
"","","","","","html-keyboard-response","16","323307","0.0-2.0-0.0-1.0-0.0","43","1","2022-04-05 08:11:26","c79472ad15d8b617a4d57d5bf56a810f","128.250.0.105","Mozilla/5.0 (Macintosh; Intel Mac OS X 10_14_6) AppleWebKit/537.36 (KHTML, like Gecko) Chrome/99.0.4844.84 Safari/537.36","Macintosh","Chrome","99.0.4844.84","OS X","10_14_6","null","null","","","<p style=""font-size:64px;"">+</p>","P_6_1_O",""
"","","","","","html-keyboard-response","17","324560","0.0-2.0-0.0-1.0-1.0","43","1","2022-04-05 08:11:26","c79472ad15d8b617a4d57d5bf56a810f","128.250.0.105","Mozilla/5.0 (Macintosh; Intel Mac OS X 10_14_6) AppleWebKit/537.36 (KHTML, like Gecko) Chrome/99.0.4844.84 Safari/537.36","Macintosh","Chrome","99.0.4844.84","OS X","10_14_6","null","null","","","
                        <div class=""orange"">
                        <div class=""centered"">
                            <p style=""font-size: 24px""><b>50%</b></p>
                        </div>","P_6_1_O",""
"","","","","","html-slider-response","18","331285","0.0-2.0-0.0-2.0","43","1","2022-04-05 08:11:26","c79472ad15d8b617a4d57d5bf56a810f","128.250.0.105","Mozilla/5.0 (Macintosh; Intel Mac OS X 10_14_6) AppleWebKit/537.36 (KHTML, like Gecko) Chrome/99.0.4844.84 Safari/537.36","Macintosh","Chrome","99.0.4844.84","OS X","10_14_6","6723.10000000149","0","","","<div style=""width: 500px; height: 100px;""><p>Place your bid for more information.</p></div>","infoBid","1"
"","","","","","html-keyboard-response","19","331686","0.0-2.0-0.0-3.0-0.0","43","1","2022-04-05 08:11:26","c79472ad15d8b617a4d57d5bf56a810f","128.250.0.105","Mozilla/5.0 (Macintosh; Intel Mac OS X 10_14_6) AppleWebKit/537.36 (KHTML, like Gecko) Chrome/99.0.4844.84 Safari/537.36","Macintosh","Chrome","99.0.4844.84","OS X","10_14_6","null","null","","","<p style=""font-size:64px;"">+</p>","P_6_1_O",""
"","","","","","html-keyboard-response","20","332939","0.0-2.0-0.0-3.0-1.0","43","1","2022-04-05 08:11:26","c79472ad15d8b617a4d57d5bf56a810f","128.250.0.105","Mozilla/5.0 (Macintosh; Intel Mac OS X 10_14_6) AppleWebKit/537.36 (KHTML, like Gecko) Chrome/99.0.4844.84 Safari/537.36","Macintosh","Chrome","99.0.4844.84","OS X","10_14_6","null","null","","","<div class=""grey"">
                <div class=""centered"">
                    <p style=""font-size: 24px""><b>???</b></p>
                </div>","P_6_1_O",""
"","","","","","html-keyboard-response","21","335965","0.0-2.0-0.0-4.0-0.0","43","1","2022-04-05 08:11:26","c79472ad15d8b617a4d57d5bf56a810f","128.250.0.105","Mozilla/5.0 (Macintosh; Intel Mac OS X 10_14_6) AppleWebKit/537.36 (KHTML, like Gecko) Chrome/99.0.4844.84 Safari/537.36","Macintosh","Chrome","99.0.4844.84","OS X","10_14_6","3024.800000000745","j","","","
                      <div class=""row"">

                          <div class=""column"">
                              <div class=""orange""></div>
                              <div class=""leftChoiceText"">
                                  <p style=""font-size: 32px""><b>F</b></p>
                              </div>
                          </div>

                          <div class=""column"">
                              <div class=""pink""></div>
                              <div class=""rightChoiceText"">
                                  <p style=""font-size: 32px""><b>J</b></p>
                              </div>
                          </div>

                      </div>

                      <div class=""centeredTop"">
                          Which colour do you<br>
                          predict will win?
                      </div>","P_6_1_O",""
"","","","","","html-keyboard-response","22","337467","0.0-2.0-0.0-4.0-1.0","43","1","2022-04-05 08:11:26","c79472ad15d8b617a4d57d5bf56a810f","128.250.0.105","Mozilla/5.0 (Macintosh; Intel Mac OS X 10_14_6) AppleWebKit/537.36 (KHTML, like Gecko) Chrome/99.0.4844.84 Safari/537.36","Macintosh","Chrome","99.0.4844.84","OS X","10_14_6","null","null","","","<p style=""font-size:64px;"">+</p>","P_6_1_O",""
"","","","","","html-keyboard-response","23","337868","0.0-2.0-1.0-0.0-0.0","43","1","2022-04-05 08:11:26","c79472ad15d8b617a4d57d5bf56a810f","128.250.0.105","Mozilla/5.0 (Macintosh; Intel Mac OS X 10_14_6) AppleWebKit/537.36 (KHTML, like Gecko) Chrome/99.0.4844.84 Safari/537.36","Macintosh","Chrome","99.0.4844.84","OS X","10_14_6","null","null","","","<p style=""font-size:64px;"">+</p>","O_6_6_O",""
"","","","","","html-keyboard-response","24","339121","0.0-2.0-1.0-0.0-1.0","43","1","2022-04-05 08:11:26","c79472ad15d8b617a4d57d5bf56a810f","128.250.0.105","Mozilla/5.0 (Macintosh; Intel Mac OS X 10_14_6) AppleWebKit/537.36 (KHTML, like Gecko) Chrome/99.0.4844.84 Safari/537.36","Macintosh","Chrome","99.0.4844.84","OS X","10_14_6","null","null","","","
                        <div class=pink>
                        <div class=""centered"">
                            <p style=""font-size: 24px""><b>52%</b></p>
                        </div>","O_6_6_O",""
"","","","","","html-keyboard-response","25","339526","0.0-2.0-1.0-0.0-0.1","43","1","2022-04-05 08:11:26","c79472ad15d8b617a4d57d5bf56a810f","128.250.0.105","Mozilla/5.0 (Macintosh; Intel Mac OS X 10_14_6) AppleWebKit/537.36 (KHTML, like Gecko) Chrome/99.0.4844.84 Safari/537.36","Macintosh","Chrome","99.0.4844.84","OS X","10_14_6","null","null","","","<p style=""font-size:64px;"">+</p>","O_6_6_O",""
"","","","","","html-keyboard-response","26","340779","0.0-2.0-1.0-0.0-1.1","43","1","2022-04-05 08:11:26","c79472ad15d8b617a4d57d5bf56a810f","128.250.0.105","Mozilla/5.0 (Macintosh; Intel Mac OS X 10_14_6) AppleWebKit/537.36 (KHTML, like Gecko) Chrome/99.0.4844.84 Safari/537.36","Macintosh","Chrome","99.0.4844.84","OS X","10_14_6","null","null","","","
                        <div class=orange>
                        <div class=""centered"">
                            <p style=""font-size: 24px""><b>55%</b></p>
                        </div>","O_6_6_O",""
"","","","","","html-keyboard-response","27","341185","0.0-2.0-1.0-0.0-0.2","43","1","2022-04-05 08:11:26","c79472ad15d8b617a4d57d5bf56a810f","128.250.0.105","Mozilla/5.0 (Macintosh; Intel Mac OS X 10_14_6) AppleWebKit/537.36 (KHTML, like Gecko) Chrome/99.0.4844.84 Safari/537.36","Macintosh","Chrome","99.0.4844.84","OS X","10_14_6","null","null","","","<p style=""font-size:64px;"">+</p>","O_6_6_O",""
"","","","","","html-keyboard-response","28","342437","0.0-2.0-1.0-0.0-1.2","43","1","2022-04-05 08:11:26","c79472ad15d8b617a4d57d5bf56a810f","128.250.0.105","Mozilla/5.0 (Macintosh; Intel Mac OS X 10_14_6) AppleWebKit/537.36 (KHTML, like Gecko) Chrome/99.0.4844.84 Safari/537.36","Macintosh","Chrome","99.0.4844.84","OS X","10_14_6","null","null","","","
                        <div class=pink>
                        <div class=""centered"">
                            <p style=""font-size: 24px""><b>53%</b></p>
                        </div>","O_6_6_O",""
"","","","","","html-keyboard-response","29","342843","0.0-2.0-1.0-0.0-0.3","43","1","2022-04-05 08:11:26","c79472ad15d8b617a4d57d5bf56a810f","128.250.0.105","Mozilla/5.0 (Macintosh; Intel Mac OS X 10_14_6) AppleWebKit/537.36 (KHTML, like Gecko) Chrome/99.0.4844.84 Safari/537.36","Macintosh","Chrome","99.0.4844.84","OS X","10_14_6","null","null","","","<p style=""font-size:64px;"">+</p>","O_6_6_O",""
"","","","","","html-keyboard-response","30","344097","0.0-2.0-1.0-0.0-1.3","43","1","2022-04-05 08:11:26","c79472ad15d8b617a4d57d5bf56a810f","128.250.0.105","Mozilla/5.0 (Macintosh; Intel Mac OS X 10_14_6) AppleWebKit/537.36 (KHTML, like Gecko) Chrome/99.0.4844.84 Safari/537.36","Macintosh","Chrome","99.0.4844.84","OS X","10_14_6","null","null","","","
                        <div class=orange>
                        <div class=""centered"">
                            <p style=""font-size: 24px""><b>55%</b></p>
                        </div>","O_6_6_O",""
"","","","","","html-keyboard-response","31","344502","0.0-2.0-1.0-0.0-0.4","43","1","2022-04-05 08:11:26","c79472ad15d8b617a4d57d5bf56a810f","128.250.0.105","Mozilla/5.0 (Macintosh; Intel Mac OS X 10_14_6) AppleWebKit/537.36 (KHTML, like Gecko) Chrome/99.0.4844.84 Safari/537.36","Macintosh","Chrome","99.0.4844.84","OS X","10_14_6","null","null","","","<p style=""font-size:64px;"">+</p>","O_6_6_O",""
"","","","","","html-keyboard-response","32","345755","0.0-2.0-1.0-0.0-1.4","43","1","2022-04-05 08:11:26","c79472ad15d8b617a4d57d5bf56a810f","128.250.0.105","Mozilla/5.0 (Macintosh; Intel Mac OS X 10_14_6) AppleWebKit/537.36 (KHTML, like Gecko) Chrome/99.0.4844.84 Safari/537.36","Macintosh","Chrome","99.0.4844.84","OS X","10_14_6","null","null","","","
                        <div class=orange>
                        <div class=""centered"">
                            <p style=""font-size: 24px""><b>54%</b></p>
                        </div>","O_6_6_O",""
"","","","","","html-keyboard-response","33","346159","0.0-2.0-1.0-0.0-0.5","43","1","2022-04-05 08:11:26","c79472ad15d8b617a4d57d5bf56a810f","128.250.0.105","Mozilla/5.0 (Macintosh; Intel Mac OS X 10_14_6) AppleWebKit/537.36 (KHTML, like Gecko) Chrome/99.0.4844.84 Safari/537.36","Macintosh","Chrome","99.0.4844.84","OS X","10_14_6","null","null","","","<p style=""font-size:64px;"">+</p>","O_6_6_O",""
"","","","","","html-keyboard-response","34","347414","0.0-2.0-1.0-0.0-1.5","43","1","2022-04-05 08:11:26","c79472ad15d8b617a4d57d5bf56a810f","128.250.0.105","Mozilla/5.0 (Macintosh; Intel Mac OS X 10_14_6) AppleWebKit/537.36 (KHTML, like Gecko) Chrome/99.0.4844.84 Safari/537.36","Macintosh","Chrome","99.0.4844.84","OS X","10_14_6","null","null","","","
                        <div class=pink>
                        <div class=""centered"">
                            <p style=""font-size: 24px""><b>53%</b></p>
                        </div>","O_6_6_O",""
"","","","","","html-keyboard-response","35","347819","0.0-2.0-1.0-1.0-0.0","43","1","2022-04-05 08:11:26","c79472ad15d8b617a4d57d5bf56a810f","128.250.0.105","Mozilla/5.0 (Macintosh; Intel Mac OS X 10_14_6) AppleWebKit/537.36 (KHTML, like Gecko) Chrome/99.0.4844.84 Safari/537.36","Macintosh","Chrome","99.0.4844.84","OS X","10_14_6","null","null","","","<p style=""font-size:64px;"">+</p>","O_6_6_O",""
"","","","","","html-keyboard-response","36","349073","0.0-2.0-1.0-1.0-1.0","43","1","2022-04-05 08:11:26","c79472ad15d8b617a4d57d5bf56a810f","128.250.0.105","Mozilla/5.0 (Macintosh; Intel Mac OS X 10_14_6) AppleWebKit/537.36 (KHTML, like Gecko) Chrome/99.0.4844.84 Safari/537.36","Macintosh","Chrome","99.0.4844.84","OS X","10_14_6","null","null","","","
                        <div class=""orange"">
                        <div class=""centered"">
                            <p style=""font-size: 24px""><b>50%</b></p>
                        </div>","O_6_6_O",""
"","","","","","html-slider-response","37","355941","0.0-2.0-1.0-2.0","43","1","2022-04-05 08:11:26","c79472ad15d8b617a4d57d5bf56a810f","128.250.0.105","Mozilla/5.0 (Macintosh; Intel Mac OS X 10_14_6) AppleWebKit/537.36 (KHTML, like Gecko) Chrome/99.0.4844.84 Safari/537.36","Macintosh","Chrome","99.0.4844.84","OS X","10_14_6","6867","0","","","<div style=""width: 500px; height: 100px;""><p>Place your bid for more information.</p></div>","infoBid","39"
"","","","","","html-keyboard-response","38","356347","0.0-2.0-1.0-3.0-0.0","43","1","2022-04-05 08:11:26","c79472ad15d8b617a4d57d5bf56a810f","128.250.0.105","Mozilla/5.0 (Macintosh; Intel Mac OS X 10_14_6) AppleWebKit/537.36 (KHTML, like Gecko) Chrome/99.0.4844.84 Safari/537.36","Macintosh","Chrome","99.0.4844.84","OS X","10_14_6","null","null","","","<p style=""font-size:64px;"">+</p>","O_6_6_O",""
"","","","","","html-keyboard-response","39","357601","0.0-2.0-1.0-3.0-1.0","43","1","2022-04-05 08:11:26","c79472ad15d8b617a4d57d5bf56a810f","128.250.0.105","Mozilla/5.0 (Macintosh; Intel Mac OS X 10_14_6) AppleWebKit/537.36 (KHTML, like Gecko) Chrome/99.0.4844.84 Safari/537.36","Macintosh","Chrome","99.0.4844.84","OS X","10_14_6","null","null","","","<div class=""grey"">
                <div class=""centered"">
                    <p style=""font-size: 24px""><b>???</b></p>
                </div>","O_6_6_O",""
"","","","","","html-keyboard-response","40","358949","0.0-2.0-1.0-4.0-0.0","43","1","2022-04-05 08:11:26","c79472ad15d8b617a4d57d5bf56a810f","128.250.0.105","Mozilla/5.0 (Macintosh; Intel Mac OS X 10_14_6) AppleWebKit/537.36 (KHTML, like Gecko) Chrome/99.0.4844.84 Safari/537.36","Macintosh","Chrome","99.0.4844.84","OS X","10_14_6","1347.199999999255","j","","","
                      <div class=""row"">

                          <div class=""column"">
                              <div class=""orange""></div>
                              <div class=""leftChoiceText"">
                                  <p style=""font-size: 32px""><b>F</b></p>
                              </div>
                          </div>

                          <div class=""column"">
                              <div class=""pink""></div>
                              <div class=""rightChoiceText"">
                                  <p style=""font-size: 32px""><b>J</b></p>
                              </div>
                          </div>

                      </div>

                      <div class=""centeredTop"">
                          Which colour do you<br>
                          predict will win?
                      </div>","O_6_6_O",""
"","","","","","html-keyboard-response","41","360454","0.0-2.0-1.0-4.0-1.0","43","1","2022-04-05 08:11:26","c79472ad15d8b617a4d57d5bf56a810f","128.250.0.105","Mozilla/5.0 (Macintosh; Intel Mac OS X 10_14_6) AppleWebKit/537.36 (KHTML, like Gecko) Chrome/99.0.4844.84 Safari/537.36","Macintosh","Chrome","99.0.4844.84","OS X","10_14_6","null","null","","","<p style=""font-size:64px;"">+</p>","O_6_6_O",""
"","","","","","html-keyboard-response","42","360859","0.0-2.0-2.0-0.0-0.0","43","1","2022-04-05 08:11:26","c79472ad15d8b617a4d57d5bf56a810f","128.250.0.105","Mozilla/5.0 (Macintosh; Intel Mac OS X 10_14_6) AppleWebKit/537.36 (KHTML, like Gecko) Chrome/99.0.4844.84 Safari/537.36","Macintosh","Chrome","99.0.4844.84","OS X","10_14_6","null","null","","","<p style=""font-size:64px;"">+</p>","P_2_5_P",""
"","","","","","html-keyboard-response","43","362113","0.0-2.0-2.0-0.0-1.0","43","1","2022-04-05 08:11:26","c79472ad15d8b617a4d57d5bf56a810f","128.250.0.105","Mozilla/5.0 (Macintosh; Intel Mac OS X 10_14_6) AppleWebKit/537.36 (KHTML, like Gecko) Chrome/99.0.4844.84 Safari/537.36","Macintosh","Chrome","99.0.4844.84","OS X","10_14_6","null","null","","","
                        <div class=pink>
                        <div class=""centered"">
                            <p style=""font-size: 24px""><b>55%</b></p>
                        </div>","P_2_5_P",""
"","","","","","html-keyboard-response","44","362518","0.0-2.0-2.0-0.0-0.1","43","1","2022-04-05 08:11:26","c79472ad15d8b617a4d57d5bf56a810f","128.250.0.105","Mozilla/5.0 (Macintosh; Intel Mac OS X 10_14_6) AppleWebKit/537.36 (KHTML, like Gecko) Chrome/99.0.4844.84 Safari/537.36","Macintosh","Chrome","99.0.4844.84","OS X","10_14_6","null","null","","","<p style=""font-size:64px;"">+</p>","P_2_5_P",""
"","","","","","html-keyboard-response","45","363771","0.0-2.0-2.0-0.0-1.1","43","1","2022-04-05 08:11:26","c79472ad15d8b617a4d57d5bf56a810f","128.250.0.105","Mozilla/5.0 (Macintosh; Intel Mac OS X 10_14_6) AppleWebKit/537.36 (KHTML, like Gecko) Chrome/99.0.4844.84 Safari/537.36","Macintosh","Chrome","99.0.4844.84","OS X","10_14_6","null","null","","","
                        <div class=pink>
                        <div class=""centered"">
                            <p style=""font-size: 24px""><b>53%</b></p>
                        </div>","P_2_5_P",""
"","","","","","html-keyboard-response","46","364177","0.0-2.0-2.0-0.0-0.2","43","1","2022-04-05 08:11:26","c79472ad15d8b617a4d57d5bf56a810f","128.250.0.105","Mozilla/5.0 (Macintosh; Intel Mac OS X 10_14_6) AppleWebKit/537.36 (KHTML, like Gecko) Chrome/99.0.4844.84 Safari/537.36","Macintosh","Chrome","99.0.4844.84","OS X","10_14_6","null","null","","","<p style=""font-size:64px;"">+</p>","P_2_5_P",""
"","","","","","html-keyboard-response","47","365430","0.0-2.0-2.0-0.0-1.2","43","1","2022-04-05 08:11:26","c79472ad15d8b617a4d57d5bf56a810f","128.250.0.105","Mozilla/5.0 (Macintosh; Intel Mac OS X 10_14_6) AppleWebKit/537.36 (KHTML, like Gecko) Chrome/99.0.4844.84 Safari/537.36","Macintosh","Chrome","99.0.4844.84","OS X","10_14_6","null","null","","","
                        <div class=orange>
                        <div class=""centered"">
                            <p style=""font-size: 24px""><b>52%</b></p>
                        </div>","P_2_5_P",""
"","","","","","html-keyboard-response","48","365835","0.0-2.0-2.0-0.0-0.3","43","1","2022-04-05 08:11:26","c79472ad15d8b617a4d57d5bf56a810f","128.250.0.105","Mozilla/5.0 (Macintosh; Intel Mac OS X 10_14_6) AppleWebKit/537.36 (KHTML, like Gecko) Chrome/99.0.4844.84 Safari/537.36","Macintosh","Chrome","99.0.4844.84","OS X","10_14_6","null","null","","","<p style=""font-size:64px;"">+</p>","P_2_5_P",""
"","","","","","html-keyboard-response","49","367089","0.0-2.0-2.0-0.0-1.3","43","1","2022-04-05 08:11:26","c79472ad15d8b617a4d57d5bf56a810f","128.250.0.105","Mozilla/5.0 (Macintosh; Intel Mac OS X 10_14_6) AppleWebKit/537.36 (KHTML, like Gecko) Chrome/99.0.4844.84 Safari/537.36","Macintosh","Chrome","99.0.4844.84","OS X","10_14_6","null","null","","","
                        <div class=orange>
                        <div class=""centered"">
                            <p style=""font-size: 24px""><b>55%</b></p>
                        </div>","P_2_5_P",""
"","","","","","html-keyboard-response","50","367494","0.0-2.0-2.0-0.0-0.4","43","1","2022-04-05 08:11:26","c79472ad15d8b617a4d57d5bf56a810f","128.250.0.105","Mozilla/5.0 (Macintosh; Intel Mac OS X 10_14_6) AppleWebKit/537.36 (KHTML, like Gecko) Chrome/99.0.4844.84 Safari/537.36","Macintosh","Chrome","99.0.4844.84","OS X","10_14_6","null","null","","","<p style=""font-size:64px;"">+</p>","P_2_5_P",""
"","","","","","html-keyboard-response","51","368747","0.0-2.0-2.0-0.0-1.4","43","1","2022-04-05 08:11:26","c79472ad15d8b617a4d57d5bf56a810f","128.250.0.105","Mozilla/5.0 (Macintosh; Intel Mac OS X 10_14_6) AppleWebKit/537.36 (KHTML, like Gecko) Chrome/99.0.4844.84 Safari/537.36","Macintosh","Chrome","99.0.4844.84","OS X","10_14_6","null","null","","","
                        <div class=pink>
                        <div class=""centered"">
                            <p style=""font-size: 24px""><b>53%</b></p>
                        </div>","P_2_5_P",""
"","","","","","html-keyboard-response","52","369152","0.0-2.0-2.0-0.0-0.5","43","1","2022-04-05 08:11:26","c79472ad15d8b617a4d57d5bf56a810f","128.250.0.105","Mozilla/5.0 (Macintosh; Intel Mac OS X 10_14_6) AppleWebKit/537.36 (KHTML, like Gecko) Chrome/99.0.4844.84 Safari/537.36","Macintosh","Chrome","99.0.4844.84","OS X","10_14_6","null","null","","","<p style=""font-size:64px;"">+</p>","P_2_5_P",""
"","","","","","html-keyboard-response","53","370406","0.0-2.0-2.0-0.0-1.5","43","1","2022-04-05 08:11:26","c79472ad15d8b617a4d57d5bf56a810f","128.250.0.105","Mozilla/5.0 (Macintosh; Intel Mac OS X 10_14_6) AppleWebKit/537.36 (KHTML, like Gecko) Chrome/99.0.4844.84 Safari/537.36","Macintosh","Chrome","99.0.4844.84","OS X","10_14_6","null","null","","","
                        <div class=orange>
                        <div class=""centered"">
                            <p style=""font-size: 24px""><b>52%</b></p>
                        </div>","P_2_5_P",""
"","","","","","html-keyboard-response","54","370811","0.0-2.0-2.0-1.0-0.0","43","1","2022-04-05 08:11:26","c79472ad15d8b617a4d57d5bf56a810f","128.250.0.105","Mozilla/5.0 (Macintosh; Intel Mac OS X 10_14_6) AppleWebKit/537.36 (KHTML, like Gecko) Chrome/99.0.4844.84 Safari/537.36","Macintosh","Chrome","99.0.4844.84","OS X","10_14_6","null","null","","","<p style=""font-size:64px;"">+</p>","P_2_5_P",""
"","","","","","html-keyboard-response","55","372064","0.0-2.0-2.0-1.0-1.0","43","1","2022-04-05 08:11:26","c79472ad15d8b617a4d57d5bf56a810f","128.250.0.105","Mozilla/5.0 (Macintosh; Intel Mac OS X 10_14_6) AppleWebKit/537.36 (KHTML, like Gecko) Chrome/99.0.4844.84 Safari/537.36","Macintosh","Chrome","99.0.4844.84","OS X","10_14_6","null","null","","","
                        <div class=""pink"">
                        <div class=""centered"">
                            <p style=""font-size: 24px""><b>50%</b></p>
                        </div>","P_2_5_P",""
"","","","","","html-slider-response","56","376828","0.0-2.0-2.0-2.0","43","1","2022-04-05 08:11:26","c79472ad15d8b617a4d57d5bf56a810f","128.250.0.105","Mozilla/5.0 (Macintosh; Intel Mac OS X 10_14_6) AppleWebKit/537.36 (KHTML, like Gecko) Chrome/99.0.4844.84 Safari/537.36","Macintosh","Chrome","99.0.4844.84","OS X","10_14_6","4763","0","","","<div style=""width: 500px; height: 100px;""><p>Place your bid for more information.</p></div>","infoBid","3"
"","","","","","html-keyboard-response","57","377234","0.0-2.0-2.0-3.0-0.0","43","1","2022-04-05 08:11:26","c79472ad15d8b617a4d57d5bf56a810f","128.250.0.105","Mozilla/5.0 (Macintosh; Intel Mac OS X 10_14_6) AppleWebKit/537.36 (KHTML, like Gecko) Chrome/99.0.4844.84 Safari/537.36","Macintosh","Chrome","99.0.4844.84","OS X","10_14_6","null","null","","","<p style=""font-size:64px;"">+</p>","P_2_5_P",""
"","","","","","html-keyboard-response","58","378486","0.0-2.0-2.0-3.0-1.0","43","1","2022-04-05 08:11:26","c79472ad15d8b617a4d57d5bf56a810f","128.250.0.105","Mozilla/5.0 (Macintosh; Intel Mac OS X 10_14_6) AppleWebKit/537.36 (KHTML, like Gecko) Chrome/99.0.4844.84 Safari/537.36","Macintosh","Chrome","99.0.4844.84","OS X","10_14_6","null","null","","","<div class=""grey"">
                <div class=""centered"">
                    <p style=""font-size: 24px""><b>???</b></p>
                </div>","P_2_5_P",""
"","","","","","html-keyboard-response","59","378877","0.0-2.0-2.0-4.0-0.0","43","1","2022-04-05 08:11:26","c79472ad15d8b617a4d57d5bf56a810f","128.250.0.105","Mozilla/5.0 (Macintosh; Intel Mac OS X 10_14_6) AppleWebKit/537.36 (KHTML, like Gecko) Chrome/99.0.4844.84 Safari/537.36","Macintosh","Chrome","99.0.4844.84","OS X","10_14_6","390","f","","","
                      <div class=""row"">

                          <div class=""column"">
                              <div class=""orange""></div>
                              <div class=""leftChoiceText"">
                                  <p style=""font-size: 32px""><b>F</b></p>
                              </div>
                          </div>

                          <div class=""column"">
                              <div class=""pink""></div>
                              <div class=""rightChoiceText"">
                                  <p style=""font-size: 32px""><b>J</b></p>
                              </div>
                          </div>

                      </div>

                      <div class=""centeredTop"">
                          Which colour do you<br>
                          predict will win?
                      </div>","P_2_5_P",""
"","","","","","html-keyboard-response","60","380379","0.0-2.0-2.0-4.0-1.0","43","1","2022-04-05 08:11:26","c79472ad15d8b617a4d57d5bf56a810f","128.250.0.105","Mozilla/5.0 (Macintosh; Intel Mac OS X 10_14_6) AppleWebKit/537.36 (KHTML, like Gecko) Chrome/99.0.4844.84 Safari/537.36","Macintosh","Chrome","99.0.4844.84","OS X","10_14_6","null","null","","","<p style=""font-size:64px;"">+</p>","P_2_5_P",""
"","","","","","html-keyboard-response","61","380780","0.0-2.0-3.0-0.0-0.0","43","1","2022-04-05 08:11:26","c79472ad15d8b617a4d57d5bf56a810f","128.250.0.105","Mozilla/5.0 (Macintosh; Intel Mac OS X 10_14_6) AppleWebKit/537.36 (KHTML, like Gecko) Chrome/99.0.4844.84 Safari/537.36","Macintosh","Chrome","99.0.4844.84","OS X","10_14_6","null","null","","","<p style=""font-size:64px;"">+</p>","O_2_5_O",""
"","","","","","html-keyboard-response","62","382033","0.0-2.0-3.0-0.0-1.0","43","1","2022-04-05 08:11:26","c79472ad15d8b617a4d57d5bf56a810f","128.250.0.105","Mozilla/5.0 (Macintosh; Intel Mac OS X 10_14_6) AppleWebKit/537.36 (KHTML, like Gecko) Chrome/99.0.4844.84 Safari/537.36","Macintosh","Chrome","99.0.4844.84","OS X","10_14_6","null","null","","","
                        <div class=orange>
                        <div class=""centered"">
                            <p style=""font-size: 24px""><b>55%</b></p>
                        </div>","O_2_5_O",""
"","","","","","html-keyboard-response","63","382438","0.0-2.0-3.0-0.0-0.1","43","1","2022-04-05 08:11:26","c79472ad15d8b617a4d57d5bf56a810f","128.250.0.105","Mozilla/5.0 (Macintosh; Intel Mac OS X 10_14_6) AppleWebKit/537.36 (KHTML, like Gecko) Chrome/99.0.4844.84 Safari/537.36","Macintosh","Chrome","99.0.4844.84","OS X","10_14_6","null","null","","","<p style=""font-size:64px;"">+</p>","O_2_5_O",""
"","","","","","html-keyboard-response","64","383691","0.0-2.0-3.0-0.0-1.1","43","1","2022-04-05 08:11:26","c79472ad15d8b617a4d57d5bf56a810f","128.250.0.105","Mozilla/5.0 (Macintosh; Intel Mac OS X 10_14_6) AppleWebKit/537.36 (KHTML, like Gecko) Chrome/99.0.4844.84 Safari/537.36","Macintosh","Chrome","99.0.4844.84","OS X","10_14_6","null","null","","","
                        <div class=pink>
                        <div class=""centered"">
                            <p style=""font-size: 24px""><b>55%</b></p>
                        </div>","O_2_5_O",""
"","","","","","html-keyboard-response","65","384097","0.0-2.0-3.0-0.0-0.2","43","1","2022-04-05 08:11:26","c79472ad15d8b617a4d57d5bf56a810f","128.250.0.105","Mozilla/5.0 (Macintosh; Intel Mac OS X 10_14_6) AppleWebKit/537.36 (KHTML, like Gecko) Chrome/99.0.4844.84 Safari/537.36","Macintosh","Chrome","99.0.4844.84","OS X","10_14_6","null","null","","","<p style=""font-size:64px;"">+</p>","O_2_5_O",""
"","","","","","html-keyboard-response","66","385350","0.0-2.0-3.0-0.0-1.2","43","1","2022-04-05 08:11:26","c79472ad15d8b617a4d57d5bf56a810f","128.250.0.105","Mozilla/5.0 (Macintosh; Intel Mac OS X 10_14_6) AppleWebKit/537.36 (KHTML, like Gecko) Chrome/99.0.4844.84 Safari/537.36","Macintosh","Chrome","99.0.4844.84","OS X","10_14_6","null","null","","","
                        <div class=pink>
                        <div class=""centered"">
                            <p style=""font-size: 24px""><b>52%</b></p>
                        </div>","O_2_5_O",""
"","","","","","html-keyboard-response","67","385755","0.0-2.0-3.0-0.0-0.3","43","1","2022-04-05 08:11:26","c79472ad15d8b617a4d57d5bf56a810f","128.250.0.105","Mozilla/5.0 (Macintosh; Intel Mac OS X 10_14_6) AppleWebKit/537.36 (KHTML, like Gecko) Chrome/99.0.4844.84 Safari/537.36","Macintosh","Chrome","99.0.4844.84","OS X","10_14_6","null","null","","","<p style=""font-size:64px;"">+</p>","O_2_5_O",""
"","","","","","html-keyboard-response","68","387009","0.0-2.0-3.0-0.0-1.3","43","1","2022-04-05 08:11:26","c79472ad15d8b617a4d57d5bf56a810f","128.250.0.105","Mozilla/5.0 (Macintosh; Intel Mac OS X 10_14_6) AppleWebKit/537.36 (KHTML, like Gecko) Chrome/99.0.4844.84 Safari/537.36","Macintosh","Chrome","99.0.4844.84","OS X","10_14_6","null","null","","","
                        <div class=orange>
                        <div class=""centered"">
                            <p style=""font-size: 24px""><b>53%</b></p>
                        </div>","O_2_5_O",""
"","","","","","html-keyboard-response","69","387414","0.0-2.0-3.0-0.0-0.4","43","1","2022-04-05 08:11:26","c79472ad15d8b617a4d57d5bf56a810f","128.250.0.105","Mozilla/5.0 (Macintosh; Intel Mac OS X 10_14_6) AppleWebKit/537.36 (KHTML, like Gecko) Chrome/99.0.4844.84 Safari/537.36","Macintosh","Chrome","99.0.4844.84","OS X","10_14_6","null","null","","","<p style=""font-size:64px;"">+</p>","O_2_5_O",""
"","","","","","html-keyboard-response","70","388667","0.0-2.0-3.0-0.0-1.4","43","1","2022-04-05 08:11:26","c79472ad15d8b617a4d57d5bf56a810f","128.250.0.105","Mozilla/5.0 (Macintosh; Intel Mac OS X 10_14_6) AppleWebKit/537.36 (KHTML, like Gecko) Chrome/99.0.4844.84 Safari/537.36","Macintosh","Chrome","99.0.4844.84","OS X","10_14_6","null","null","","","
                        <div class=pink>
                        <div class=""centered"">
                            <p style=""font-size: 24px""><b>52%</b></p>
                        </div>","O_2_5_O",""
"","","","","","html-keyboard-response","71","389071","0.0-2.0-3.0-0.0-0.5","43","1","2022-04-05 08:11:26","c79472ad15d8b617a4d57d5bf56a810f","128.250.0.105","Mozilla/5.0 (Macintosh; Intel Mac OS X 10_14_6) AppleWebKit/537.36 (KHTML, like Gecko) Chrome/99.0.4844.84 Safari/537.36","Macintosh","Chrome","99.0.4844.84","OS X","10_14_6","null","null","","","<p style=""font-size:64px;"">+</p>","O_2_5_O",""
"","","","","","html-keyboard-response","72","390326","0.0-2.0-3.0-0.0-1.5","43","1","2022-04-05 08:11:26","c79472ad15d8b617a4d57d5bf56a810f","128.250.0.105","Mozilla/5.0 (Macintosh; Intel Mac OS X 10_14_6) AppleWebKit/537.36 (KHTML, like Gecko) Chrome/99.0.4844.84 Safari/537.36","Macintosh","Chrome","99.0.4844.84","OS X","10_14_6","null","null","","","
                        <div class=orange>
                        <div class=""centered"">
                            <p style=""font-size: 24px""><b>53%</b></p>
                        </div>","O_2_5_O",""
"","","","","","html-keyboard-response","73","390731","0.0-2.0-3.0-1.0-0.0","43","1","2022-04-05 08:11:26","c79472ad15d8b617a4d57d5bf56a810f","128.250.0.105","Mozilla/5.0 (Macintosh; Intel Mac OS X 10_14_6) AppleWebKit/537.36 (KHTML, like Gecko) Chrome/99.0.4844.84 Safari/537.36","Macintosh","Chrome","99.0.4844.84","OS X","10_14_6","null","null","","","<p style=""font-size:64px;"">+</p>","O_2_5_O",""
"","","","","","html-keyboard-response","74","391984","0.0-2.0-3.0-1.0-1.0","43","1","2022-04-05 08:11:26","c79472ad15d8b617a4d57d5bf56a810f","128.250.0.105","Mozilla/5.0 (Macintosh; Intel Mac OS X 10_14_6) AppleWebKit/537.36 (KHTML, like Gecko) Chrome/99.0.4844.84 Safari/537.36","Macintosh","Chrome","99.0.4844.84","OS X","10_14_6","null","null","","","
                        <div class=""orange"">
                        <div class=""centered"">
                            <p style=""font-size: 24px""><b>50%</b></p>
                        </div>","O_2_5_O",""
"","","","","","html-slider-response","75","397277","0.0-2.0-3.0-2.0","43","1","2022-04-05 08:11:26","c79472ad15d8b617a4d57d5bf56a810f","128.250.0.105","Mozilla/5.0 (Macintosh; Intel Mac OS X 10_14_6) AppleWebKit/537.36 (KHTML, like Gecko) Chrome/99.0.4844.84 Safari/537.36","Macintosh","Chrome","99.0.4844.84","OS X","10_14_6","5291.29999999702","0","","","<div style=""width: 500px; height: 100px;""><p>Place your bid for more information.</p></div>","infoBid","47"
"","","","","","html-keyboard-response","76","397683","0.0-2.0-3.0-3.0-0.0","43","1","2022-04-05 08:11:26","c79472ad15d8b617a4d57d5bf56a810f","128.250.0.105","Mozilla/5.0 (Macintosh; Intel Mac OS X 10_14_6) AppleWebKit/537.36 (KHTML, like Gecko) Chrome/99.0.4844.84 Safari/537.36","Macintosh","Chrome","99.0.4844.84","OS X","10_14_6","null","null","","","<p style=""font-size:64px;"">+</p>","O_2_5_O",""
"","","","","","html-keyboard-response","77","398934","0.0-2.0-3.0-3.0-1.0","43","1","2022-04-05 08:11:26","c79472ad15d8b617a4d57d5bf56a810f","128.250.0.105","Mozilla/5.0 (Macintosh; Intel Mac OS X 10_14_6) AppleWebKit/537.36 (KHTML, like Gecko) Chrome/99.0.4844.84 Safari/537.36","Macintosh","Chrome","99.0.4844.84","OS X","10_14_6","null","null","","","<div class=""grey"">
                <div class=""centered"">
                    <p style=""font-size: 24px""><b>???</b></p>
                </div>","O_2_5_O",""
"","","","","","html-keyboard-response","78","400757","0.0-2.0-3.0-4.0-0.0","43","1","2022-04-05 08:11:26","c79472ad15d8b617a4d57d5bf56a810f","128.250.0.105","Mozilla/5.0 (Macintosh; Intel Mac OS X 10_14_6) AppleWebKit/537.36 (KHTML, like Gecko) Chrome/99.0.4844.84 Safari/537.36","Macintosh","Chrome","99.0.4844.84","OS X","10_14_6","1822","j","","","
                      <div class=""row"">

                          <div class=""column"">
                              <div class=""orange""></div>
                              <div class=""leftChoiceText"">
                                  <p style=""font-size: 32px""><b>F</b></p>
                              </div>
                          </div>

                          <div class=""column"">
                              <div class=""pink""></div>
                              <div class=""rightChoiceText"">
                                  <p style=""font-size: 32px""><b>J</b></p>
                              </div>
                          </div>

                      </div>

                      <div class=""centeredTop"">
                          Which colour do you<br>
                          predict will win?
                      </div>","O_2_5_O",""
"","","","","","html-keyboard-response","79","402262","0.0-2.0-3.0-4.0-1.0","43","1","2022-04-05 08:11:26","c79472ad15d8b617a4d57d5bf56a810f","128.250.0.105","Mozilla/5.0 (Macintosh; Intel Mac OS X 10_14_6) AppleWebKit/537.36 (KHTML, like Gecko) Chrome/99.0.4844.84 Safari/537.36","Macintosh","Chrome","99.0.4844.84","OS X","10_14_6","null","null","","","<p style=""font-size:64px;"">+</p>","O_2_5_O",""
"","","","","","html-keyboard-response","80","402667","0.0-2.0-4.0-0.0-0.0","43","1","2022-04-05 08:11:26","c79472ad15d8b617a4d57d5bf56a810f","128.250.0.105","Mozilla/5.0 (Macintosh; Intel Mac OS X 10_14_6) AppleWebKit/537.36 (KHTML, like Gecko) Chrome/99.0.4844.84 Safari/537.36","Macintosh","Chrome","99.0.4844.84","OS X","10_14_6","null","null","","","<p style=""font-size:64px;"">+</p>","P_6_2_O",""
"","","","","","html-keyboard-response","81","403921","0.0-2.0-4.0-0.0-1.0","43","1","2022-04-05 08:11:26","c79472ad15d8b617a4d57d5bf56a810f","128.250.0.105","Mozilla/5.0 (Macintosh; Intel Mac OS X 10_14_6) AppleWebKit/537.36 (KHTML, like Gecko) Chrome/99.0.4844.84 Safari/537.36","Macintosh","Chrome","99.0.4844.84","OS X","10_14_6","null","null","","","
                        <div class=orange>
                        <div class=""centered"">
                            <p style=""font-size: 24px""><b>51%</b></p>
                        </div>","P_6_2_O",""
"","","","","","html-keyboard-response","82","404326","0.0-2.0-4.0-0.0-0.1","43","1","2022-04-05 08:11:26","c79472ad15d8b617a4d57d5bf56a810f","128.250.0.105","Mozilla/5.0 (Macintosh; Intel Mac OS X 10_14_6) AppleWebKit/537.36 (KHTML, like Gecko) Chrome/99.0.4844.84 Safari/537.36","Macintosh","Chrome","99.0.4844.84","OS X","10_14_6","null","null","","","<p style=""font-size:64px;"">+</p>","P_6_2_O",""
"","","","","","html-keyboard-response","83","405579","0.0-2.0-4.0-0.0-1.1","43","1","2022-04-05 08:11:26","c79472ad15d8b617a4d57d5bf56a810f","128.250.0.105","Mozilla/5.0 (Macintosh; Intel Mac OS X 10_14_6) AppleWebKit/537.36 (KHTML, like Gecko) Chrome/99.0.4844.84 Safari/537.36","Macintosh","Chrome","99.0.4844.84","OS X","10_14_6","null","null","","","
                        <div class=pink>
                        <div class=""centered"">
                            <p style=""font-size: 24px""><b>54%</b></p>
                        </div>","P_6_2_O",""
"","","","","","html-keyboard-response","84","405985","0.0-2.0-4.0-0.0-0.2","43","1","2022-04-05 08:11:26","c79472ad15d8b617a4d57d5bf56a810f","128.250.0.105","Mozilla/5.0 (Macintosh; Intel Mac OS X 10_14_6) AppleWebKit/537.36 (KHTML, like Gecko) Chrome/99.0.4844.84 Safari/537.36","Macintosh","Chrome","99.0.4844.84","OS X","10_14_6","null","null","","","<p style=""font-size:64px;"">+</p>","P_6_2_O",""
"","","","","","html-keyboard-response","85","407238","0.0-2.0-4.0-0.0-1.2","43","1","2022-04-05 08:11:26","c79472ad15d8b617a4d57d5bf56a810f","128.250.0.105","Mozilla/5.0 (Macintosh; Intel Mac OS X 10_14_6) AppleWebKit/537.36 (KHTML, like Gecko) Chrome/99.0.4844.84 Safari/537.36","Macintosh","Chrome","99.0.4844.84","OS X","10_14_6","null","null","","","
                        <div class=pink>
                        <div class=""centered"">
                            <p style=""font-size: 24px""><b>54%</b></p>
                        </div>","P_6_2_O",""
"","","","","","html-keyboard-response","86","407643","0.0-2.0-4.0-0.0-0.3","43","1","2022-04-05 08:11:26","c79472ad15d8b617a4d57d5bf56a810f","128.250.0.105","Mozilla/5.0 (Macintosh; Intel Mac OS X 10_14_6) AppleWebKit/537.36 (KHTML, like Gecko) Chrome/99.0.4844.84 Safari/537.36","Macintosh","Chrome","99.0.4844.84","OS X","10_14_6","null","null","","","<p style=""font-size:64px;"">+</p>","P_6_2_O",""
"","","","","","html-keyboard-response","87","408897","0.0-2.0-4.0-0.0-1.3","43","1","2022-04-05 08:11:26","c79472ad15d8b617a4d57d5bf56a810f","128.250.0.105","Mozilla/5.0 (Macintosh; Intel Mac OS X 10_14_6) AppleWebKit/537.36 (KHTML, like Gecko) Chrome/99.0.4844.84 Safari/537.36","Macintosh","Chrome","99.0.4844.84","OS X","10_14_6","null","null","","","
                        <div class=orange>
                        <div class=""centered"">
                            <p style=""font-size: 24px""><b>53%</b></p>
                        </div>","P_6_2_O",""
"","","","","","html-keyboard-response","88","409302","0.0-2.0-4.0-0.0-0.4","43","1","2022-04-05 08:11:26","c79472ad15d8b617a4d57d5bf56a810f","128.250.0.105","Mozilla/5.0 (Macintosh; Intel Mac OS X 10_14_6) AppleWebKit/537.36 (KHTML, like Gecko) Chrome/99.0.4844.84 Safari/537.36","Macintosh","Chrome","99.0.4844.84","OS X","10_14_6","null","null","","","<p style=""font-size:64px;"">+</p>","P_6_2_O",""
"","","","","","html-keyboard-response","89","410555","0.0-2.0-4.0-0.0-1.4","43","1","2022-04-05 08:11:26","c79472ad15d8b617a4d57d5bf56a810f","128.250.0.105","Mozilla/5.0 (Macintosh; Intel Mac OS X 10_14_6) AppleWebKit/537.36 (KHTML, like Gecko) Chrome/99.0.4844.84 Safari/537.36","Macintosh","Chrome","99.0.4844.84","OS X","10_14_6","null","null","","","
                        <div class=pink>
                        <div class=""centered"">
                            <p style=""font-size: 24px""><b>53%</b></p>
                        </div>","P_6_2_O",""
"","","","","","html-keyboard-response","90","410960","0.0-2.0-4.0-0.0-0.5","43","1","2022-04-05 08:11:26","c79472ad15d8b617a4d57d5bf56a810f","128.250.0.105","Mozilla/5.0 (Macintosh; Intel Mac OS X 10_14_6) AppleWebKit/537.36 (KHTML, like Gecko) Chrome/99.0.4844.84 Safari/537.36","Macintosh","Chrome","99.0.4844.84","OS X","10_14_6","null","null","","","<p style=""font-size:64px;"">+</p>","P_6_2_O",""
"","","","","","html-keyboard-response","91","412214","0.0-2.0-4.0-0.0-1.5","43","1","2022-04-05 08:11:26","c79472ad15d8b617a4d57d5bf56a810f","128.250.0.105","Mozilla/5.0 (Macintosh; Intel Mac OS X 10_14_6) AppleWebKit/537.36 (KHTML, like Gecko) Chrome/99.0.4844.84 Safari/537.36","Macintosh","Chrome","99.0.4844.84","OS X","10_14_6","null","null","","","
                        <div class=orange>
                        <div class=""centered"">
                            <p style=""font-size: 24px""><b>51%</b></p>
                        </div>","P_6_2_O",""
"","","","","","html-keyboard-response","92","412619","0.0-2.0-4.0-1.0-0.0","43","1","2022-04-05 08:11:26","c79472ad15d8b617a4d57d5bf56a810f","128.250.0.105","Mozilla/5.0 (Macintosh; Intel Mac OS X 10_14_6) AppleWebKit/537.36 (KHTML, like Gecko) Chrome/99.0.4844.84 Safari/537.36","Macintosh","Chrome","99.0.4844.84","OS X","10_14_6","null","null","","","<p style=""font-size:64px;"">+</p>","P_6_2_O",""
"","","","","","html-keyboard-response","93","413873","0.0-2.0-4.0-1.0-1.0","43","1","2022-04-05 08:11:26","c79472ad15d8b617a4d57d5bf56a810f","128.250.0.105","Mozilla/5.0 (Macintosh; Intel Mac OS X 10_14_6) AppleWebKit/537.36 (KHTML, like Gecko) Chrome/99.0.4844.84 Safari/537.36","Macintosh","Chrome","99.0.4844.84","OS X","10_14_6","null","null","","","
                        <div class=""orange"">
                        <div class=""centered"">
                            <p style=""font-size: 24px""><b>50%</b></p>
                        </div>","P_6_2_O",""
"","","","","","html-slider-response","94","422124","0.0-2.0-4.0-2.0","43","1","2022-04-05 08:11:26","c79472ad15d8b617a4d57d5bf56a810f","128.250.0.105","Mozilla/5.0 (Macintosh; Intel Mac OS X 10_14_6) AppleWebKit/537.36 (KHTML, like Gecko) Chrome/99.0.4844.84 Safari/537.36","Macintosh","Chrome","99.0.4844.84","OS X","10_14_6","8249.900000002235","25","","","<div style=""width: 500px; height: 100px;""><p>Place your bid for more information.</p></div>","infoBid","4"
"","","","","","html-keyboard-response","95","422529","0.0-2.0-4.0-3.0-0.0","43","1","2022-04-05 08:11:26","c79472ad15d8b617a4d57d5bf56a810f","128.250.0.105","Mozilla/5.0 (Macintosh; Intel Mac OS X 10_14_6) AppleWebKit/537.36 (KHTML, like Gecko) Chrome/99.0.4844.84 Safari/537.36","Macintosh","Chrome","99.0.4844.84","OS X","10_14_6","null","null","","","<p style=""font-size:64px;"">+</p>","P_6_2_O",""
"","","","","","html-keyboard-response","96","423784","0.0-2.0-4.0-3.0-1.0","43","1","2022-04-05 08:11:26","c79472ad15d8b617a4d57d5bf56a810f","128.250.0.105","Mozilla/5.0 (Macintosh; Intel Mac OS X 10_14_6) AppleWebKit/537.36 (KHTML, like Gecko) Chrome/99.0.4844.84 Safari/537.36","Macintosh","Chrome","99.0.4844.84","OS X","10_14_6","null","null","","","<div class=orange>
                <div class=""centered"">
                    <p style=""font-size: 24px""><b>53%</b></p>
                </div>","P_6_2_O",""
"","","","","","html-keyboard-response","97","426789","0.0-2.0-4.0-4.0-0.0","43","1","2022-04-05 08:11:26","c79472ad15d8b617a4d57d5bf56a810f","128.250.0.105","Mozilla/5.0 (Macintosh; Intel Mac OS X 10_14_6) AppleWebKit/537.36 (KHTML, like Gecko) Chrome/99.0.4844.84 Safari/537.36","Macintosh","Chrome","99.0.4844.84","OS X","10_14_6","3004","j","","","
                      <div class=""row"">

                          <div class=""column"">
                              <div class=""orange""></div>
                              <div class=""leftChoiceText"">
                                  <p style=""font-size: 32px""><b>F</b></p>
                              </div>
                          </div>

                          <div class=""column"">
                              <div class=""pink""></div>
                              <div class=""rightChoiceText"">
                                  <p style=""font-size: 32px""><b>J</b></p>
                              </div>
                          </div>

                      </div>

                      <div class=""centeredTop"">
                          Which colour do you<br>
                          predict will win?
                      </div>","P_6_2_O",""
"","","","","","html-keyboard-response","98","428294","0.0-2.0-4.0-4.0-1.0","43","1","2022-04-05 08:11:26","c79472ad15d8b617a4d57d5bf56a810f","128.250.0.105","Mozilla/5.0 (Macintosh; Intel Mac OS X 10_14_6) AppleWebKit/537.36 (KHTML, like Gecko) Chrome/99.0.4844.84 Safari/537.36","Macintosh","Chrome","99.0.4844.84","OS X","10_14_6","null","null","","","<p style=""font-size:64px;"">+</p>","P_6_2_O",""
"","","","","","html-keyboard-response","99","428699","0.0-2.0-5.0-0.0-0.0","43","1","2022-04-05 08:11:26","c79472ad15d8b617a4d57d5bf56a810f","128.250.0.105","Mozilla/5.0 (Macintosh; Intel Mac OS X 10_14_6) AppleWebKit/537.36 (KHTML, like Gecko) Chrome/99.0.4844.84 Safari/537.36","Macintosh","Chrome","99.0.4844.84","OS X","10_14_6","null","null","","","<p style=""font-size:64px;"">+</p>","P_4_6_O",""
"","","","","","html-keyboard-response","100","429953","0.0-2.0-5.0-0.0-1.0","43","1","2022-04-05 08:11:26","c79472ad15d8b617a4d57d5bf56a810f","128.250.0.105","Mozilla/5.0 (Macintosh; Intel Mac OS X 10_14_6) AppleWebKit/537.36 (KHTML, like Gecko) Chrome/99.0.4844.84 Safari/537.36","Macintosh","Chrome","99.0.4844.84","OS X","10_14_6","null","null","","","
                        <div class=pink>
                        <div class=""centered"">
                            <p style=""font-size: 24px""><b>54%</b></p>
                        </div>","P_4_6_O",""
"","","","","","html-keyboard-response","101","430358","0.0-2.0-5.0-0.0-0.1","43","1","2022-04-05 08:11:26","c79472ad15d8b617a4d57d5bf56a810f","128.250.0.105","Mozilla/5.0 (Macintosh; Intel Mac OS X 10_14_6) AppleWebKit/537.36 (KHTML, like Gecko) Chrome/99.0.4844.84 Safari/537.36","Macintosh","Chrome","99.0.4844.84","OS X","10_14_6","null","null","","","<p style=""font-size:64px;"">+</p>","P_4_6_O",""
"","","","","","html-keyboard-response","102","431611","0.0-2.0-5.0-0.0-1.1","43","1","2022-04-05 08:11:26","c79472ad15d8b617a4d57d5bf56a810f","128.250.0.105","Mozilla/5.0 (Macintosh; Intel Mac OS X 10_14_6) AppleWebKit/537.36 (KHTML, like Gecko) Chrome/99.0.4844.84 Safari/537.36","Macintosh","Chrome","99.0.4844.84","OS X","10_14_6","null","null","","","
                        <div class=orange>
                        <div class=""centered"">
                            <p style=""font-size: 24px""><b>54%</b></p>
                        </div>","P_4_6_O",""
"","","","","","html-keyboard-response","103","432017","0.0-2.0-5.0-0.0-0.2","43","1","2022-04-05 08:11:26","c79472ad15d8b617a4d57d5bf56a810f","128.250.0.105","Mozilla/5.0 (Macintosh; Intel Mac OS X 10_14_6) AppleWebKit/537.36 (KHTML, like Gecko) Chrome/99.0.4844.84 Safari/537.36","Macintosh","Chrome","99.0.4844.84","OS X","10_14_6","null","null","","","<p style=""font-size:64px;"">+</p>","P_4_6_O",""
"","","","","","html-keyboard-response","104","433270","0.0-2.0-5.0-0.0-1.2","43","1","2022-04-05 08:11:26","c79472ad15d8b617a4d57d5bf56a810f","128.250.0.105","Mozilla/5.0 (Macintosh; Intel Mac OS X 10_14_6) AppleWebKit/537.36 (KHTML, like Gecko) Chrome/99.0.4844.84 Safari/537.36","Macintosh","Chrome","99.0.4844.84","OS X","10_14_6","null","null","","","
                        <div class=pink>
                        <div class=""centered"">
                            <p style=""font-size: 24px""><b>55%</b></p>
                        </div>","P_4_6_O",""
"","","","","","html-keyboard-response","105","433675","0.0-2.0-5.0-0.0-0.3","43","1","2022-04-05 08:11:26","c79472ad15d8b617a4d57d5bf56a810f","128.250.0.105","Mozilla/5.0 (Macintosh; Intel Mac OS X 10_14_6) AppleWebKit/537.36 (KHTML, like Gecko) Chrome/99.0.4844.84 Safari/537.36","Macintosh","Chrome","99.0.4844.84","OS X","10_14_6","null","null","","","<p style=""font-size:64px;"">+</p>","P_4_6_O",""
"","","","","","html-keyboard-response","106","434929","0.0-2.0-5.0-0.0-1.3","43","1","2022-04-05 08:11:26","c79472ad15d8b617a4d57d5bf56a810f","128.250.0.105","Mozilla/5.0 (Macintosh; Intel Mac OS X 10_14_6) AppleWebKit/537.36 (KHTML, like Gecko) Chrome/99.0.4844.84 Safari/537.36","Macintosh","Chrome","99.0.4844.84","OS X","10_14_6","null","null","","","
                        <div class=orange>
                        <div class=""centered"">
                            <p style=""font-size: 24px""><b>53%</b></p>
                        </div>","P_4_6_O",""
"","","","","","html-keyboard-response","107","435334","0.0-2.0-5.0-0.0-0.4","43","1","2022-04-05 08:11:26","c79472ad15d8b617a4d57d5bf56a810f","128.250.0.105","Mozilla/5.0 (Macintosh; Intel Mac OS X 10_14_6) AppleWebKit/537.36 (KHTML, like Gecko) Chrome/99.0.4844.84 Safari/537.36","Macintosh","Chrome","99.0.4844.84","OS X","10_14_6","null","null","","","<p style=""font-size:64px;"">+</p>","P_4_6_O",""
"","","","","","html-keyboard-response","108","436587","0.0-2.0-5.0-0.0-1.4","43","1","2022-04-05 08:11:26","c79472ad15d8b617a4d57d5bf56a810f","128.250.0.105","Mozilla/5.0 (Macintosh; Intel Mac OS X 10_14_6) AppleWebKit/537.36 (KHTML, like Gecko) Chrome/99.0.4844.84 Safari/537.36","Macintosh","Chrome","99.0.4844.84","OS X","10_14_6","null","null","","","
                        <div class=pink>
                        <div class=""centered"">
                            <p style=""font-size: 24px""><b>54%</b></p>
                        </div>","P_4_6_O",""
"","","","","","html-keyboard-response","109","436991","0.0-2.0-5.0-0.0-0.5","43","1","2022-04-05 08:11:26","c79472ad15d8b617a4d57d5bf56a810f","128.250.0.105","Mozilla/5.0 (Macintosh; Intel Mac OS X 10_14_6) AppleWebKit/537.36 (KHTML, like Gecko) Chrome/99.0.4844.84 Safari/537.36","Macintosh","Chrome","99.0.4844.84","OS X","10_14_6","null","null","","","<p style=""font-size:64px;"">+</p>","P_4_6_O",""
"","","","","","html-keyboard-response","110","438246","0.0-2.0-5.0-0.0-1.5","43","1","2022-04-05 08:11:26","c79472ad15d8b617a4d57d5bf56a810f","128.250.0.105","Mozilla/5.0 (Macintosh; Intel Mac OS X 10_14_6) AppleWebKit/537.36 (KHTML, like Gecko) Chrome/99.0.4844.84 Safari/537.36","Macintosh","Chrome","99.0.4844.84","OS X","10_14_6","null","null","","","
                        <div class=orange>
                        <div class=""centered"">
                            <p style=""font-size: 24px""><b>52%</b></p>
                        </div>","P_4_6_O",""
"","","","","","html-keyboard-response","111","438651","0.0-2.0-5.0-1.0-0.0","43","1","2022-04-05 08:11:26","c79472ad15d8b617a4d57d5bf56a810f","128.250.0.105","Mozilla/5.0 (Macintosh; Intel Mac OS X 10_14_6) AppleWebKit/537.36 (KHTML, like Gecko) Chrome/99.0.4844.84 Safari/537.36","Macintosh","Chrome","99.0.4844.84","OS X","10_14_6","null","null","","","<p style=""font-size:64px;"">+</p>","P_4_6_O",""
"","","","","","html-keyboard-response","112","439905","0.0-2.0-5.0-1.0-1.0","43","1","2022-04-05 08:11:26","c79472ad15d8b617a4d57d5bf56a810f","128.250.0.105","Mozilla/5.0 (Macintosh; Intel Mac OS X 10_14_6) AppleWebKit/537.36 (KHTML, like Gecko) Chrome/99.0.4844.84 Safari/537.36","Macintosh","Chrome","99.0.4844.84","OS X","10_14_6","null","null","","","
                        <div class=""orange"">
                        <div class=""centered"">
                            <p style=""font-size: 24px""><b>50%</b></p>
                        </div>","P_4_6_O",""
"","","","","","html-slider-response","113","443901","0.0-2.0-5.0-2.0","43","1","2022-04-05 08:11:26","c79472ad15d8b617a4d57d5bf56a810f","128.250.0.105","Mozilla/5.0 (Macintosh; Intel Mac OS X 10_14_6) AppleWebKit/537.36 (KHTML, like Gecko) Chrome/99.0.4844.84 Safari/537.36","Macintosh","Chrome","99.0.4844.84","OS X","10_14_6","3993.89999999851","0","","","<div style=""width: 500px; height: 100px;""><p>Place your bid for more information.</p></div>","infoBid","47"
"","","","","","html-keyboard-response","114","444305","0.0-2.0-5.0-3.0-0.0","43","1","2022-04-05 08:11:26","c79472ad15d8b617a4d57d5bf56a810f","128.250.0.105","Mozilla/5.0 (Macintosh; Intel Mac OS X 10_14_6) AppleWebKit/537.36 (KHTML, like Gecko) Chrome/99.0.4844.84 Safari/537.36","Macintosh","Chrome","99.0.4844.84","OS X","10_14_6","null","null","","","<p style=""font-size:64px;"">+</p>","P_4_6_O",""
"","","","","","html-keyboard-response","115","445558","0.0-2.0-5.0-3.0-1.0","43","1","2022-04-05 08:11:26","c79472ad15d8b617a4d57d5bf56a810f","128.250.0.105","Mozilla/5.0 (Macintosh; Intel Mac OS X 10_14_6) AppleWebKit/537.36 (KHTML, like Gecko) Chrome/99.0.4844.84 Safari/537.36","Macintosh","Chrome","99.0.4844.84","OS X","10_14_6","null","null","","","<div class=""grey"">
                <div class=""centered"">
                    <p style=""font-size: 24px""><b>???</b></p>
                </div>","P_4_6_O",""
"","","","","","html-keyboard-response","116","446620","0.0-2.0-5.0-4.0-0.0","43","1","2022-04-05 08:11:26","c79472ad15d8b617a4d57d5bf56a810f","128.250.0.105","Mozilla/5.0 (Macintosh; Intel Mac OS X 10_14_6) AppleWebKit/537.36 (KHTML, like Gecko) Chrome/99.0.4844.84 Safari/537.36","Macintosh","Chrome","99.0.4844.84","OS X","10_14_6","1061.8999999985099","f","","","
                      <div class=""row"">

                          <div class=""column"">
                              <div class=""orange""></div>
                              <div class=""leftChoiceText"">
                                  <p style=""font-size: 32px""><b>F</b></p>
                              </div>
                          </div>

                          <div class=""column"">
                              <div class=""pink""></div>
                              <div class=""rightChoiceText"">
                                  <p style=""font-size: 32px""><b>J</b></p>
                              </div>
                          </div>

                      </div>

                      <div class=""centeredTop"">
                          Which colour do you<br>
                          predict will win?
                      </div>","P_4_6_O",""
"","","","","","html-keyboard-response","117","448123","0.0-2.0-5.0-4.0-1.0","43","1","2022-04-05 08:11:26","c79472ad15d8b617a4d57d5bf56a810f","128.250.0.105","Mozilla/5.0 (Macintosh; Intel Mac OS X 10_14_6) AppleWebKit/537.36 (KHTML, like Gecko) Chrome/99.0.4844.84 Safari/537.36","Macintosh","Chrome","99.0.4844.84","OS X","10_14_6","null","null","","","<p style=""font-size:64px;"">+</p>","P_4_6_O",""
"","","","","","html-keyboard-response","118","448529","0.0-2.0-6.0-0.0-0.0","43","1","2022-04-05 08:11:26","c79472ad15d8b617a4d57d5bf56a810f","128.250.0.105","Mozilla/5.0 (Macintosh; Intel Mac OS X 10_14_6) AppleWebKit/537.36 (KHTML, like Gecko) Chrome/99.0.4844.84 Safari/537.36","Macintosh","Chrome","99.0.4844.84","OS X","10_14_6","null","null","","","<p style=""font-size:64px;"">+</p>","P_6_4_P",""
"","","","","","html-keyboard-response","119","449782","0.0-2.0-6.0-0.0-1.0","43","1","2022-04-05 08:11:26","c79472ad15d8b617a4d57d5bf56a810f","128.250.0.105","Mozilla/5.0 (Macintosh; Intel Mac OS X 10_14_6) AppleWebKit/537.36 (KHTML, like Gecko) Chrome/99.0.4844.84 Safari/537.36","Macintosh","Chrome","99.0.4844.84","OS X","10_14_6","null","null","","","
                        <div class=orange>
                        <div class=""centered"">
                            <p style=""font-size: 24px""><b>53%</b></p>
                        </div>","P_6_4_P",""
"","","","","","html-keyboard-response","120","450187","0.0-2.0-6.0-0.0-0.1","43","1","2022-04-05 08:11:26","c79472ad15d8b617a4d57d5bf56a810f","128.250.0.105","Mozilla/5.0 (Macintosh; Intel Mac OS X 10_14_6) AppleWebKit/537.36 (KHTML, like Gecko) Chrome/99.0.4844.84 Safari/537.36","Macintosh","Chrome","99.0.4844.84","OS X","10_14_6","null","null","","","<p style=""font-size:64px;"">+</p>","P_6_4_P",""
"","","","","","html-keyboard-response","121","451441","0.0-2.0-6.0-0.0-1.1","43","1","2022-04-05 08:11:26","c79472ad15d8b617a4d57d5bf56a810f","128.250.0.105","Mozilla/5.0 (Macintosh; Intel Mac OS X 10_14_6) AppleWebKit/537.36 (KHTML, like Gecko) Chrome/99.0.4844.84 Safari/537.36","Macintosh","Chrome","99.0.4844.84","OS X","10_14_6","null","null","","","
                        <div class=orange>
                        <div class=""centered"">
                            <p style=""font-size: 24px""><b>52%</b></p>
                        </div>","P_6_4_P",""
"","","","","","html-keyboard-response","122","451846","0.0-2.0-6.0-0.0-0.2","43","1","2022-04-05 08:11:26","c79472ad15d8b617a4d57d5bf56a810f","128.250.0.105","Mozilla/5.0 (Macintosh; Intel Mac OS X 10_14_6) AppleWebKit/537.36 (KHTML, like Gecko) Chrome/99.0.4844.84 Safari/537.36","Macintosh","Chrome","99.0.4844.84","OS X","10_14_6","null","null","","","<p style=""font-size:64px;"">+</p>","P_6_4_P",""
"","","","","","html-keyboard-response","123","453099","0.0-2.0-6.0-0.0-1.2","43","1","2022-04-05 08:11:26","c79472ad15d8b617a4d57d5bf56a810f","128.250.0.105","Mozilla/5.0 (Macintosh; Intel Mac OS X 10_14_6) AppleWebKit/537.36 (KHTML, like Gecko) Chrome/99.0.4844.84 Safari/537.36","Macintosh","Chrome","99.0.4844.84","OS X","10_14_6","null","null","","","
                        <div class=pink>
                        <div class=""centered"">
                            <p style=""font-size: 24px""><b>54%</b></p>
                        </div>","P_6_4_P",""
"","","","","","html-keyboard-response","124","453505","0.0-2.0-6.0-0.0-0.3","43","1","2022-04-05 08:11:26","c79472ad15d8b617a4d57d5bf56a810f","128.250.0.105","Mozilla/5.0 (Macintosh; Intel Mac OS X 10_14_6) AppleWebKit/537.36 (KHTML, like Gecko) Chrome/99.0.4844.84 Safari/537.36","Macintosh","Chrome","99.0.4844.84","OS X","10_14_6","null","null","","","<p style=""font-size:64px;"">+</p>","P_6_4_P",""
"","","","","","html-keyboard-response","125","454758","0.0-2.0-6.0-0.0-1.3","43","1","2022-04-05 08:11:26","c79472ad15d8b617a4d57d5bf56a810f","128.250.0.105","Mozilla/5.0 (Macintosh; Intel Mac OS X 10_14_6) AppleWebKit/537.36 (KHTML, like Gecko) Chrome/99.0.4844.84 Safari/537.36","Macintosh","Chrome","99.0.4844.84","OS X","10_14_6","null","null","","","
                        <div class=orange>
                        <div class=""centered"">
                            <p style=""font-size: 24px""><b>52%</b></p>
                        </div>","P_6_4_P",""
"","","","","","html-keyboard-response","126","455160","0.0-2.0-6.0-0.0-0.4","43","1","2022-04-05 08:11:26","c79472ad15d8b617a4d57d5bf56a810f","128.250.0.105","Mozilla/5.0 (Macintosh; Intel Mac OS X 10_14_6) AppleWebKit/537.36 (KHTML, like Gecko) Chrome/99.0.4844.84 Safari/537.36","Macintosh","Chrome","99.0.4844.84","OS X","10_14_6","null","null","","","<p style=""font-size:64px;"">+</p>","P_6_4_P",""
"","","","","","html-keyboard-response","127","456411","0.0-2.0-6.0-0.0-1.4","43","1","2022-04-05 08:11:26","c79472ad15d8b617a4d57d5bf56a810f","128.250.0.105","Mozilla/5.0 (Macintosh; Intel Mac OS X 10_14_6) AppleWebKit/537.36 (KHTML, like Gecko) Chrome/99.0.4844.84 Safari/537.36","Macintosh","Chrome","99.0.4844.84","OS X","10_14_6","null","null","","","
                        <div class=pink>
                        <div class=""centered"">
                            <p style=""font-size: 24px""><b>55%</b></p>
                        </div>","P_6_4_P",""
"","","","","","html-keyboard-response","128","456817","0.0-2.0-6.0-0.0-0.5","43","1","2022-04-05 08:11:26","c79472ad15d8b617a4d57d5bf56a810f","128.250.0.105","Mozilla/5.0 (Macintosh; Intel Mac OS X 10_14_6) AppleWebKit/537.36 (KHTML, like Gecko) Chrome/99.0.4844.84 Safari/537.36","Macintosh","Chrome","99.0.4844.84","OS X","10_14_6","null","null","","","<p style=""font-size:64px;"">+</p>","P_6_4_P",""
"","","","","","html-keyboard-response","129","458070","0.0-2.0-6.0-0.0-1.5","43","1","2022-04-05 08:11:26","c79472ad15d8b617a4d57d5bf56a810f","128.250.0.105","Mozilla/5.0 (Macintosh; Intel Mac OS X 10_14_6) AppleWebKit/537.36 (KHTML, like Gecko) Chrome/99.0.4844.84 Safari/537.36","Macintosh","Chrome","99.0.4844.84","OS X","10_14_6","null","null","","","
                        <div class=pink>
                        <div class=""centered"">
                            <p style=""font-size: 24px""><b>54%</b></p>
                        </div>","P_6_4_P",""
"","","","","","html-keyboard-response","130","458475","0.0-2.0-6.0-1.0-0.0","43","1","2022-04-05 08:11:26","c79472ad15d8b617a4d57d5bf56a810f","128.250.0.105","Mozilla/5.0 (Macintosh; Intel Mac OS X 10_14_6) AppleWebKit/537.36 (KHTML, like Gecko) Chrome/99.0.4844.84 Safari/537.36","Macintosh","Chrome","99.0.4844.84","OS X","10_14_6","null","null","","","<p style=""font-size:64px;"">+</p>","P_6_4_P",""
"","","","","","html-keyboard-response","131","459728","0.0-2.0-6.0-1.0-1.0","43","1","2022-04-05 08:11:26","c79472ad15d8b617a4d57d5bf56a810f","128.250.0.105","Mozilla/5.0 (Macintosh; Intel Mac OS X 10_14_6) AppleWebKit/537.36 (KHTML, like Gecko) Chrome/99.0.4844.84 Safari/537.36","Macintosh","Chrome","99.0.4844.84","OS X","10_14_6","null","null","","","
                        <div class=""pink"">
                        <div class=""centered"">
                            <p style=""font-size: 24px""><b>50%</b></p>
                        </div>","P_6_4_P",""
"","","","","","html-slider-response","132","462181","0.0-2.0-6.0-2.0","43","1","2022-04-05 08:11:26","c79472ad15d8b617a4d57d5bf56a810f","128.250.0.105","Mozilla/5.0 (Macintosh; Intel Mac OS X 10_14_6) AppleWebKit/537.36 (KHTML, like Gecko) Chrome/99.0.4844.84 Safari/537.36","Macintosh","Chrome","99.0.4844.84","OS X","10_14_6","2452.099999997765","0","","","<div style=""width: 500px; height: 100px;""><p>Place your bid for more information.</p></div>","infoBid","48"
"","","","","","html-keyboard-response","133","462582","0.0-2.0-6.0-3.0-0.0","43","1","2022-04-05 08:11:26","c79472ad15d8b617a4d57d5bf56a810f","128.250.0.105","Mozilla/5.0 (Macintosh; Intel Mac OS X 10_14_6) AppleWebKit/537.36 (KHTML, like Gecko) Chrome/99.0.4844.84 Safari/537.36","Macintosh","Chrome","99.0.4844.84","OS X","10_14_6","null","null","","","<p style=""font-size:64px;"">+</p>","P_6_4_P",""
"","","","","","html-keyboard-response","134","463835","0.0-2.0-6.0-3.0-1.0","43","1","2022-04-05 08:11:26","c79472ad15d8b617a4d57d5bf56a810f","128.250.0.105","Mozilla/5.0 (Macintosh; Intel Mac OS X 10_14_6) AppleWebKit/537.36 (KHTML, like Gecko) Chrome/99.0.4844.84 Safari/537.36","Macintosh","Chrome","99.0.4844.84","OS X","10_14_6","null","null","","","<div class=""grey"">
                <div class=""centered"">
                    <p style=""font-size: 24px""><b>???</b></p>
                </div>","P_6_4_P",""
"","","","","","html-keyboard-response","135","464109","0.0-2.0-6.0-4.0-0.0","43","1","2022-04-05 08:11:26","c79472ad15d8b617a4d57d5bf56a810f","128.250.0.105","Mozilla/5.0 (Macintosh; Intel Mac OS X 10_14_6) AppleWebKit/537.36 (KHTML, like Gecko) Chrome/99.0.4844.84 Safari/537.36","Macintosh","Chrome","99.0.4844.84","OS X","10_14_6","272.5","j","","","
                      <div class=""row"">

                          <div class=""column"">
                              <div class=""orange""></div>
                              <div class=""leftChoiceText"">
                                  <p style=""font-size: 32px""><b>F</b></p>
                              </div>
                          </div>

                          <div class=""column"">
                              <div class=""pink""></div>
                              <div class=""rightChoiceText"">
                                  <p style=""font-size: 32px""><b>J</b></p>
                              </div>
                          </div>

                      </div>

                      <div class=""centeredTop"">
                          Which colour do you<br>
                          predict will win?
                      </div>","P_6_4_P",""
"","","","","","html-keyboard-response","136","465611","0.0-2.0-6.0-4.0-1.0","43","1","2022-04-05 08:11:26","c79472ad15d8b617a4d57d5bf56a810f","128.250.0.105","Mozilla/5.0 (Macintosh; Intel Mac OS X 10_14_6) AppleWebKit/537.36 (KHTML, like Gecko) Chrome/99.0.4844.84 Safari/537.36","Macintosh","Chrome","99.0.4844.84","OS X","10_14_6","null","null","","","<p style=""font-size:64px;"">+</p>","P_6_4_P",""
"","","","","","html-keyboard-response","137","466017","0.0-2.0-7.0-0.0-0.0","43","1","2022-04-05 08:11:26","c79472ad15d8b617a4d57d5bf56a810f","128.250.0.105","Mozilla/5.0 (Macintosh; Intel Mac OS X 10_14_6) AppleWebKit/537.36 (KHTML, like Gecko) Chrome/99.0.4844.84 Safari/537.36","Macintosh","Chrome","99.0.4844.84","OS X","10_14_6","null","null","","","<p style=""font-size:64px;"">+</p>","Z_4_O",""
"","","","","","html-keyboard-response","138","467268","0.0-2.0-7.0-0.0-1.0","43","1","2022-04-05 08:11:26","c79472ad15d8b617a4d57d5bf56a810f","128.250.0.105","Mozilla/5.0 (Macintosh; Intel Mac OS X 10_14_6) AppleWebKit/537.36 (KHTML, like Gecko) Chrome/99.0.4844.84 Safari/537.36","Macintosh","Chrome","99.0.4844.84","OS X","10_14_6","null","null","","","
                        <div class=pink>
                        <div class=""centered"">
                            <p style=""font-size: 24px""><b>53%</b></p>
                        </div>","Z_4_O",""
"","","","","","html-keyboard-response","139","467670","0.0-2.0-7.0-0.0-0.1","43","1","2022-04-05 08:11:26","c79472ad15d8b617a4d57d5bf56a810f","128.250.0.105","Mozilla/5.0 (Macintosh; Intel Mac OS X 10_14_6) AppleWebKit/537.36 (KHTML, like Gecko) Chrome/99.0.4844.84 Safari/537.36","Macintosh","Chrome","99.0.4844.84","OS X","10_14_6","null","null","","","<p style=""font-size:64px;"">+</p>","Z_4_O",""
"","","","","","html-keyboard-response","140","468923","0.0-2.0-7.0-0.0-1.1","43","1","2022-04-05 08:11:26","c79472ad15d8b617a4d57d5bf56a810f","128.250.0.105","Mozilla/5.0 (Macintosh; Intel Mac OS X 10_14_6) AppleWebKit/537.36 (KHTML, like Gecko) Chrome/99.0.4844.84 Safari/537.36","Macintosh","Chrome","99.0.4844.84","OS X","10_14_6","null","null","","","
                        <div class=orange>
                        <div class=""centered"">
                            <p style=""font-size: 24px""><b>54%</b></p>
                        </div>","Z_4_O",""
"","","","","","html-keyboard-response","141","469324","0.0-2.0-7.0-0.0-0.2","43","1","2022-04-05 08:11:26","c79472ad15d8b617a4d57d5bf56a810f","128.250.0.105","Mozilla/5.0 (Macintosh; Intel Mac OS X 10_14_6) AppleWebKit/537.36 (KHTML, like Gecko) Chrome/99.0.4844.84 Safari/537.36","Macintosh","Chrome","99.0.4844.84","OS X","10_14_6","null","null","","","<p style=""font-size:64px;"">+</p>","Z_4_O",""
"","","","","","html-keyboard-response","142","470577","0.0-2.0-7.0-0.0-1.2","43","1","2022-04-05 08:11:26","c79472ad15d8b617a4d57d5bf56a810f","128.250.0.105","Mozilla/5.0 (Macintosh; Intel Mac OS X 10_14_6) AppleWebKit/537.36 (KHTML, like Gecko) Chrome/99.0.4844.84 Safari/537.36","Macintosh","Chrome","99.0.4844.84","OS X","10_14_6","null","null","","","
                        <div class=orange>
                        <div class=""centered"">
                            <p style=""font-size: 24px""><b>54%</b></p>
                        </div>","Z_4_O",""
"","","","","","html-keyboard-response","143","470979","0.0-2.0-7.0-0.0-0.3","43","1","2022-04-05 08:11:26","c79472ad15d8b617a4d57d5bf56a810f","128.250.0.105","Mozilla/5.0 (Macintosh; Intel Mac OS X 10_14_6) AppleWebKit/537.36 (KHTML, like Gecko) Chrome/99.0.4844.84 Safari/537.36","Macintosh","Chrome","99.0.4844.84","OS X","10_14_6","null","null","","","<p style=""font-size:64px;"">+</p>","Z_4_O",""
"","","","","","html-keyboard-response","144","472230","0.0-2.0-7.0-0.0-1.3","43","1","2022-04-05 08:11:26","c79472ad15d8b617a4d57d5bf56a810f","128.250.0.105","Mozilla/5.0 (Macintosh; Intel Mac OS X 10_14_6) AppleWebKit/537.36 (KHTML, like Gecko) Chrome/99.0.4844.84 Safari/537.36","Macintosh","Chrome","99.0.4844.84","OS X","10_14_6","null","null","","","
                        <div class=orange>
                        <div class=""centered"">
                            <p style=""font-size: 24px""><b>51%</b></p>
                        </div>","Z_4_O",""
"","","","","","html-keyboard-response","145","472631","0.0-2.0-7.0-0.0-0.4","43","1","2022-04-05 08:11:26","c79472ad15d8b617a4d57d5bf56a810f","128.250.0.105","Mozilla/5.0 (Macintosh; Intel Mac OS X 10_14_6) AppleWebKit/537.36 (KHTML, like Gecko) Chrome/99.0.4844.84 Safari/537.36","Macintosh","Chrome","99.0.4844.84","OS X","10_14_6","null","null","","","<p style=""font-size:64px;"">+</p>","Z_4_O",""
"","","","","","html-keyboard-response","146","473883","0.0-2.0-7.0-0.0-1.4","43","1","2022-04-05 08:11:26","c79472ad15d8b617a4d57d5bf56a810f","128.250.0.105","Mozilla/5.0 (Macintosh; Intel Mac OS X 10_14_6) AppleWebKit/537.36 (KHTML, like Gecko) Chrome/99.0.4844.84 Safari/537.36","Macintosh","Chrome","99.0.4844.84","OS X","10_14_6","null","null","","","
                        <div class=pink>
                        <div class=""centered"">
                            <p style=""font-size: 24px""><b>51%</b></p>
                        </div>","Z_4_O",""
"","","","","","html-keyboard-response","147","474289","0.0-2.0-7.0-0.0-0.5","43","1","2022-04-05 08:11:26","c79472ad15d8b617a4d57d5bf56a810f","128.250.0.105","Mozilla/5.0 (Macintosh; Intel Mac OS X 10_14_6) AppleWebKit/537.36 (KHTML, like Gecko) Chrome/99.0.4844.84 Safari/537.36","Macintosh","Chrome","99.0.4844.84","OS X","10_14_6","null","null","","","<p style=""font-size:64px;"">+</p>","Z_4_O",""
"","","","","","html-keyboard-response","148","475542","0.0-2.0-7.0-0.0-1.5","43","1","2022-04-05 08:11:26","c79472ad15d8b617a4d57d5bf56a810f","128.250.0.105","Mozilla/5.0 (Macintosh; Intel Mac OS X 10_14_6) AppleWebKit/537.36 (KHTML, like Gecko) Chrome/99.0.4844.84 Safari/537.36","Macintosh","Chrome","99.0.4844.84","OS X","10_14_6","null","null","","","
                        <div class=pink>
                        <div class=""centered"">
                            <p style=""font-size: 24px""><b>55%</b></p>
                        </div>","Z_4_O",""
"","","","","","html-keyboard-response","149","475943","0.0-2.0-7.0-1.0-0.0","43","1","2022-04-05 08:11:26","c79472ad15d8b617a4d57d5bf56a810f","128.250.0.105","Mozilla/5.0 (Macintosh; Intel Mac OS X 10_14_6) AppleWebKit/537.36 (KHTML, like Gecko) Chrome/99.0.4844.84 Safari/537.36","Macintosh","Chrome","99.0.4844.84","OS X","10_14_6","null","null","","","<p style=""font-size:64px;"">+</p>","Z_4_O",""
"","","","","","html-keyboard-response","150","477195","0.0-2.0-7.0-1.0-1.0","43","1","2022-04-05 08:11:26","c79472ad15d8b617a4d57d5bf56a810f","128.250.0.105","Mozilla/5.0 (Macintosh; Intel Mac OS X 10_14_6) AppleWebKit/537.36 (KHTML, like Gecko) Chrome/99.0.4844.84 Safari/537.36","Macintosh","Chrome","99.0.4844.84","OS X","10_14_6","null","null","","","
                        <div class=""orange"">
                        <div class=""centered"">
                            <p style=""font-size: 24px""><b>50%</b></p>
                        </div>","Z_4_O",""
"","","","","","html-slider-response","151","480317","0.0-2.0-7.0-2.0","43","1","2022-04-05 08:11:26","c79472ad15d8b617a4d57d5bf56a810f","128.250.0.105","Mozilla/5.0 (Macintosh; Intel Mac OS X 10_14_6) AppleWebKit/537.36 (KHTML, like Gecko) Chrome/99.0.4844.84 Safari/537.36","Macintosh","Chrome","99.0.4844.84","OS X","10_14_6","3120.199999999255","0","","","<div style=""width: 500px; height: 100px;""><p>Place your bid for more information.</p></div>","infoBid","0"
"","","","","","html-keyboard-response","152","480721","0.0-2.0-7.0-3.0-0.0","43","1","2022-04-05 08:11:26","c79472ad15d8b617a4d57d5bf56a810f","128.250.0.105","Mozilla/5.0 (Macintosh; Intel Mac OS X 10_14_6) AppleWebKit/537.36 (KHTML, like Gecko) Chrome/99.0.4844.84 Safari/537.36","Macintosh","Chrome","99.0.4844.84","OS X","10_14_6","null","null","","","<p style=""font-size:64px;"">+</p>","Z_4_O",""
"","","","","","html-keyboard-response","153","481974","0.0-2.0-7.0-3.0-1.0","43","1","2022-04-05 08:11:26","c79472ad15d8b617a4d57d5bf56a810f","128.250.0.105","Mozilla/5.0 (Macintosh; Intel Mac OS X 10_14_6) AppleWebKit/537.36 (KHTML, like Gecko) Chrome/99.0.4844.84 Safari/537.36","Macintosh","Chrome","99.0.4844.84","OS X","10_14_6","null","null","","","<div class=""grey"">
                <div class=""centered"">
                    <p style=""font-size: 24px""><b>???</b></p>
                </div>","Z_4_O",""
"","","","","","html-keyboard-response","154","482453","0.0-2.0-7.0-4.0-0.0","43","1","2022-04-05 08:11:26","c79472ad15d8b617a4d57d5bf56a810f","128.250.0.105","Mozilla/5.0 (Macintosh; Intel Mac OS X 10_14_6) AppleWebKit/537.36 (KHTML, like Gecko) Chrome/99.0.4844.84 Safari/537.36","Macintosh","Chrome","99.0.4844.84","OS X","10_14_6","477.8999999985099","j","","","
                      <div class=""row"">

                          <div class=""column"">
                              <div class=""orange""></div>
                              <div class=""leftChoiceText"">
                                  <p style=""font-size: 32px""><b>F</b></p>
                              </div>
                          </div>

                          <div class=""column"">
                              <div class=""pink""></div>
                              <div class=""rightChoiceText"">
                                  <p style=""font-size: 32px""><b>J</b></p>
                              </div>
                          </div>

                      </div>

                      <div class=""centeredTop"">
                          Which colour do you<br>
                          predict will win?
                      </div>","Z_4_O",""
"","","","","","html-keyboard-response","155","483958","0.0-2.0-7.0-4.0-1.0","43","1","2022-04-05 08:11:26","c79472ad15d8b617a4d57d5bf56a810f","128.250.0.105","Mozilla/5.0 (Macintosh; Intel Mac OS X 10_14_6) AppleWebKit/537.36 (KHTML, like Gecko) Chrome/99.0.4844.84 Safari/537.36","Macintosh","Chrome","99.0.4844.84","OS X","10_14_6","null","null","","","<p style=""font-size:64px;"">+</p>","Z_4_O",""
"","","","","","html-keyboard-response","156","487437","0.0-2.0-8.0","43","1","2022-04-05 08:11:26","c79472ad15d8b617a4d57d5bf56a810f","128.250.0.105","Mozilla/5.0 (Macintosh; Intel Mac OS X 10_14_6) AppleWebKit/537.36 (KHTML, like Gecko) Chrome/99.0.4844.84 Safari/537.36","Macintosh","Chrome","99.0.4844.84","OS X","10_14_6","3477.89999999851"," ","","","This is the end of the practice trials.<br><br>
        Press spacebar to begin the experiment.","",""
"","","","","","html-keyboard-response","157","487844","0.0-2.0-9.0-0.0-0.0","43","1","2022-04-05 08:11:26","c79472ad15d8b617a4d57d5bf56a810f","128.250.0.105","Mozilla/5.0 (Macintosh; Intel Mac OS X 10_14_6) AppleWebKit/537.36 (KHTML, like Gecko) Chrome/99.0.4844.84 Safari/537.36","Macintosh","Chrome","99.0.4844.84","OS X","10_14_6","null","null","","","<p style=""font-size:64px;"">+</p>","P_4_1_P",""
"","","","","","html-keyboard-response","158","489099","0.0-2.0-9.0-0.0-1.0","43","1","2022-04-05 08:11:26","c79472ad15d8b617a4d57d5bf56a810f","128.250.0.105","Mozilla/5.0 (Macintosh; Intel Mac OS X 10_14_6) AppleWebKit/537.36 (KHTML, like Gecko) Chrome/99.0.4844.84 Safari/537.36","Macintosh","Chrome","99.0.4844.84","OS X","10_14_6","null","null","","","
                        <div class=pink>
                        <div class=""centered"">
                            <p style=""font-size: 24px""><b>53%</b></p>
                        </div>","P_4_1_P",""
"","","","","","html-keyboard-response","159","489505","0.0-2.0-9.0-0.0-0.1","43","1","2022-04-05 08:11:26","c79472ad15d8b617a4d57d5bf56a810f","128.250.0.105","Mozilla/5.0 (Macintosh; Intel Mac OS X 10_14_6) AppleWebKit/537.36 (KHTML, like Gecko) Chrome/99.0.4844.84 Safari/537.36","Macintosh","Chrome","99.0.4844.84","OS X","10_14_6","null","null","","","<p style=""font-size:64px;"">+</p>","P_4_1_P",""
"","","","","","html-keyboard-response","160","490758","0.0-2.0-9.0-0.0-1.1","43","1","2022-04-05 08:11:26","c79472ad15d8b617a4d57d5bf56a810f","128.250.0.105","Mozilla/5.0 (Macintosh; Intel Mac OS X 10_14_6) AppleWebKit/537.36 (KHTML, like Gecko) Chrome/99.0.4844.84 Safari/537.36","Macintosh","Chrome","99.0.4844.84","OS X","10_14_6","null","null","","","
                        <div class=orange>
                        <div class=""centered"">
                            <p style=""font-size: 24px""><b>51%</b></p>
                        </div>","P_4_1_P",""
"","","","","","html-keyboard-response","161","491163","0.0-2.0-9.0-0.0-0.2","43","1","2022-04-05 08:11:26","c79472ad15d8b617a4d57d5bf56a810f","128.250.0.105","Mozilla/5.0 (Macintosh; Intel Mac OS X 10_14_6) AppleWebKit/537.36 (KHTML, like Gecko) Chrome/99.0.4844.84 Safari/537.36","Macintosh","Chrome","99.0.4844.84","OS X","10_14_6","null","null","","","<p style=""font-size:64px;"">+</p>","P_4_1_P",""
"","","","","","html-keyboard-response","162","492417","0.0-2.0-9.0-0.0-1.2","43","1","2022-04-05 08:11:26","c79472ad15d8b617a4d57d5bf56a810f","128.250.0.105","Mozilla/5.0 (Macintosh; Intel Mac OS X 10_14_6) AppleWebKit/537.36 (KHTML, like Gecko) Chrome/99.0.4844.84 Safari/537.36","Macintosh","Chrome","99.0.4844.84","OS X","10_14_6","null","null","","","
                        <div class=orange>
                        <div class=""centered"">
                            <p style=""font-size: 24px""><b>55%</b></p>
                        </div>","P_4_1_P",""
"","","","","","html-keyboard-response","163","492822","0.0-2.0-9.0-0.0-0.3","43","1","2022-04-05 08:11:26","c79472ad15d8b617a4d57d5bf56a810f","128.250.0.105","Mozilla/5.0 (Macintosh; Intel Mac OS X 10_14_6) AppleWebKit/537.36 (KHTML, like Gecko) Chrome/99.0.4844.84 Safari/537.36","Macintosh","Chrome","99.0.4844.84","OS X","10_14_6","null","null","","","<p style=""font-size:64px;"">+</p>","P_4_1_P",""
"","","","","","html-keyboard-response","164","494075","0.0-2.0-9.0-0.0-1.3","43","1","2022-04-05 08:11:26","c79472ad15d8b617a4d57d5bf56a810f","128.250.0.105","Mozilla/5.0 (Macintosh; Intel Mac OS X 10_14_6) AppleWebKit/537.36 (KHTML, like Gecko) Chrome/99.0.4844.84 Safari/537.36","Macintosh","Chrome","99.0.4844.84","OS X","10_14_6","null","null","","","
                        <div class=pink>
                        <div class=""centered"">
                            <p style=""font-size: 24px""><b>54%</b></p>
                        </div>","P_4_1_P",""
"","","","","","html-keyboard-response","165","494480","0.0-2.0-9.0-0.0-0.4","43","1","2022-04-05 08:11:26","c79472ad15d8b617a4d57d5bf56a810f","128.250.0.105","Mozilla/5.0 (Macintosh; Intel Mac OS X 10_14_6) AppleWebKit/537.36 (KHTML, like Gecko) Chrome/99.0.4844.84 Safari/537.36","Macintosh","Chrome","99.0.4844.84","OS X","10_14_6","null","null","","","<p style=""font-size:64px;"">+</p>","P_4_1_P",""
"","","","","","html-keyboard-response","166","495734","0.0-2.0-9.0-0.0-1.4","43","1","2022-04-05 08:11:26","c79472ad15d8b617a4d57d5bf56a810f","128.250.0.105","Mozilla/5.0 (Macintosh; Intel Mac OS X 10_14_6) AppleWebKit/537.36 (KHTML, like Gecko) Chrome/99.0.4844.84 Safari/537.36","Macintosh","Chrome","99.0.4844.84","OS X","10_14_6","null","null","","","
                        <div class=pink>
                        <div class=""centered"">
                            <p style=""font-size: 24px""><b>54%</b></p>
                        </div>","P_4_1_P",""
"","","","","","html-keyboard-response","167","496139","0.0-2.0-9.0-0.0-0.5","43","1","2022-04-05 08:11:26","c79472ad15d8b617a4d57d5bf56a810f","128.250.0.105","Mozilla/5.0 (Macintosh; Intel Mac OS X 10_14_6) AppleWebKit/537.36 (KHTML, like Gecko) Chrome/99.0.4844.84 Safari/537.36","Macintosh","Chrome","99.0.4844.84","OS X","10_14_6","null","null","","","<p style=""font-size:64px;"">+</p>","P_4_1_P",""
"","","","","","html-keyboard-response","168","497392","0.0-2.0-9.0-0.0-1.5","43","1","2022-04-05 08:11:26","c79472ad15d8b617a4d57d5bf56a810f","128.250.0.105","Mozilla/5.0 (Macintosh; Intel Mac OS X 10_14_6) AppleWebKit/537.36 (KHTML, like Gecko) Chrome/99.0.4844.84 Safari/537.36","Macintosh","Chrome","99.0.4844.84","OS X","10_14_6","null","null","","","
                        <div class=orange>
                        <div class=""centered"">
                            <p style=""font-size: 24px""><b>51%</b></p>
                        </div>","P_4_1_P",""
"","","","","","html-keyboard-response","169","497798","0.0-2.0-9.0-1.0-0.0","43","1","2022-04-05 08:11:26","c79472ad15d8b617a4d57d5bf56a810f","128.250.0.105","Mozilla/5.0 (Macintosh; Intel Mac OS X 10_14_6) AppleWebKit/537.36 (KHTML, like Gecko) Chrome/99.0.4844.84 Safari/537.36","Macintosh","Chrome","99.0.4844.84","OS X","10_14_6","null","null","","","<p style=""font-size:64px;"">+</p>","P_4_1_P",""
"","","","","","html-keyboard-response","170","499051","0.0-2.0-9.0-1.0-1.0","43","1","2022-04-05 08:11:26","c79472ad15d8b617a4d57d5bf56a810f","128.250.0.105","Mozilla/5.0 (Macintosh; Intel Mac OS X 10_14_6) AppleWebKit/537.36 (KHTML, like Gecko) Chrome/99.0.4844.84 Safari/537.36","Macintosh","Chrome","99.0.4844.84","OS X","10_14_6","null","null","","","
                        <div class=""pink"">
                        <div class=""centered"">
                            <p style=""font-size: 24px""><b>50%</b></p>
                        </div>","P_4_1_P",""
"","","","","","html-slider-response","171","501812","0.0-2.0-9.0-2.0","43","1","2022-04-05 08:11:26","c79472ad15d8b617a4d57d5bf56a810f","128.250.0.105","Mozilla/5.0 (Macintosh; Intel Mac OS X 10_14_6) AppleWebKit/537.36 (KHTML, like Gecko) Chrome/99.0.4844.84 Safari/537.36","Macintosh","Chrome","99.0.4844.84","OS X","10_14_6","2760.5","0","","","<div style=""width: 500px; height: 100px;""><p>Place your bid for more information.</p></div>","infoBid","11"
"","","","","","html-keyboard-response","172","502213","0.0-2.0-9.0-3.0-0.0","43","1","2022-04-05 08:11:26","c79472ad15d8b617a4d57d5bf56a810f","128.250.0.105","Mozilla/5.0 (Macintosh; Intel Mac OS X 10_14_6) AppleWebKit/537.36 (KHTML, like Gecko) Chrome/99.0.4844.84 Safari/537.36","Macintosh","Chrome","99.0.4844.84","OS X","10_14_6","null","null","","","<p style=""font-size:64px;"">+</p>","P_4_1_P",""
"","","","","","html-keyboard-response","173","503467","0.0-2.0-9.0-3.0-1.0","43","1","2022-04-05 08:11:26","c79472ad15d8b617a4d57d5bf56a810f","128.250.0.105","Mozilla/5.0 (Macintosh; Intel Mac OS X 10_14_6) AppleWebKit/537.36 (KHTML, like Gecko) Chrome/99.0.4844.84 Safari/537.36","Macintosh","Chrome","99.0.4844.84","OS X","10_14_6","null","null","","","<div class=""grey"">
                <div class=""centered"">
                    <p style=""font-size: 24px""><b>???</b></p>
                </div>","P_4_1_P",""
"","","","","","html-keyboard-response","174","503837","0.0-2.0-9.0-4.0-0.0","43","1","2022-04-05 08:11:26","c79472ad15d8b617a4d57d5bf56a810f","128.250.0.105","Mozilla/5.0 (Macintosh; Intel Mac OS X 10_14_6) AppleWebKit/537.36 (KHTML, like Gecko) Chrome/99.0.4844.84 Safari/537.36","Macintosh","Chrome","99.0.4844.84","OS X","10_14_6","368.5","j","","","
                      <div class=""row"">

                          <div class=""column"">
                              <div class=""orange""></div>
                              <div class=""leftChoiceText"">
                                  <p style=""font-size: 32px""><b>F</b></p>
                              </div>
                          </div>

                          <div class=""column"">
                              <div class=""pink""></div>
                              <div class=""rightChoiceText"">
                                  <p style=""font-size: 32px""><b>J</b></p>
                              </div>
                          </div>

                      </div>

                      <div class=""centeredTop"">
                          Which colour do you<br>
                          predict will win?
                      </div>","P_4_1_P",""
"","","","","","html-keyboard-response","175","505339","0.0-2.0-9.0-4.0-1.0","43","1","2022-04-05 08:11:26","c79472ad15d8b617a4d57d5bf56a810f","128.250.0.105","Mozilla/5.0 (Macintosh; Intel Mac OS X 10_14_6) AppleWebKit/537.36 (KHTML, like Gecko) Chrome/99.0.4844.84 Safari/537.36","Macintosh","Chrome","99.0.4844.84","OS X","10_14_6","null","null","","","<p style=""font-size:64px;"">+</p>","P_4_1_P",""
"","","","","","html-keyboard-response","176","505744","0.0-2.0-10.0-0.0-0.0","43","1","2022-04-05 08:11:26","c79472ad15d8b617a4d57d5bf56a810f","128.250.0.105","Mozilla/5.0 (Macintosh; Intel Mac OS X 10_14_6) AppleWebKit/537.36 (KHTML, like Gecko) Chrome/99.0.4844.84 Safari/537.36","Macintosh","Chrome","99.0.4844.84","OS X","10_14_6","null","null","","","<p style=""font-size:64px;"">+</p>","P_2_5_O",""
"","","","","","html-keyboard-response","177","506998","0.0-2.0-10.0-0.0-1.0","43","1","2022-04-05 08:11:26","c79472ad15d8b617a4d57d5bf56a810f","128.250.0.105","Mozilla/5.0 (Macintosh; Intel Mac OS X 10_14_6) AppleWebKit/537.36 (KHTML, like Gecko) Chrome/99.0.4844.84 Safari/537.36","Macintosh","Chrome","99.0.4844.84","OS X","10_14_6","null","null","","","
                        <div class=orange>
                        <div class=""centered"">
                            <p style=""font-size: 24px""><b>52%</b></p>
                        </div>","P_2_5_O",""
"","","","","","html-keyboard-response","178","507403","0.0-2.0-10.0-0.0-0.1","43","1","2022-04-05 08:11:26","c79472ad15d8b617a4d57d5bf56a810f","128.250.0.105","Mozilla/5.0 (Macintosh; Intel Mac OS X 10_14_6) AppleWebKit/537.36 (KHTML, like Gecko) Chrome/99.0.4844.84 Safari/537.36","Macintosh","Chrome","99.0.4844.84","OS X","10_14_6","null","null","","","<p style=""font-size:64px;"">+</p>","P_2_5_O",""
"","","","","","html-keyboard-response","179","508657","0.0-2.0-10.0-0.0-1.1","43","1","2022-04-05 08:11:26","c79472ad15d8b617a4d57d5bf56a810f","128.250.0.105","Mozilla/5.0 (Macintosh; Intel Mac OS X 10_14_6) AppleWebKit/537.36 (KHTML, like Gecko) Chrome/99.0.4844.84 Safari/537.36","Macintosh","Chrome","99.0.4844.84","OS X","10_14_6","null","null","","","
                        <div class=pink>
                        <div class=""centered"">
                            <p style=""font-size: 24px""><b>53%</b></p>
                        </div>","P_2_5_O",""
"","","","","","html-keyboard-response","180","509062","0.0-2.0-10.0-0.0-0.2","43","1","2022-04-05 08:11:26","c79472ad15d8b617a4d57d5bf56a810f","128.250.0.105","Mozilla/5.0 (Macintosh; Intel Mac OS X 10_14_6) AppleWebKit/537.36 (KHTML, like Gecko) Chrome/99.0.4844.84 Safari/537.36","Macintosh","Chrome","99.0.4844.84","OS X","10_14_6","null","null","","","<p style=""font-size:64px;"">+</p>","P_2_5_O",""
"","","","","","html-keyboard-response","181","510315","0.0-2.0-10.0-0.0-1.2","43","1","2022-04-05 08:11:26","c79472ad15d8b617a4d57d5bf56a810f","128.250.0.105","Mozilla/5.0 (Macintosh; Intel Mac OS X 10_14_6) AppleWebKit/537.36 (KHTML, like Gecko) Chrome/99.0.4844.84 Safari/537.36","Macintosh","Chrome","99.0.4844.84","OS X","10_14_6","null","null","","","
                        <div class=orange>
                        <div class=""centered"">
                            <p style=""font-size: 24px""><b>55%</b></p>
                        </div>","P_2_5_O",""
"","","","","","html-keyboard-response","182","510721","0.0-2.0-10.0-0.0-0.3","43","1","2022-04-05 08:11:26","c79472ad15d8b617a4d57d5bf56a810f","128.250.0.105","Mozilla/5.0 (Macintosh; Intel Mac OS X 10_14_6) AppleWebKit/537.36 (KHTML, like Gecko) Chrome/99.0.4844.84 Safari/537.36","Macintosh","Chrome","99.0.4844.84","OS X","10_14_6","null","null","","","<p style=""font-size:64px;"">+</p>","P_2_5_O",""
"","","","","","html-keyboard-response","183","511973","0.0-2.0-10.0-0.0-1.3","43","1","2022-04-05 08:11:26","c79472ad15d8b617a4d57d5bf56a810f","128.250.0.105","Mozilla/5.0 (Macintosh; Intel Mac OS X 10_14_6) AppleWebKit/537.36 (KHTML, like Gecko) Chrome/99.0.4844.84 Safari/537.36","Macintosh","Chrome","99.0.4844.84","OS X","10_14_6","null","null","","","
                        <div class=pink>
                        <div class=""centered"">
                            <p style=""font-size: 24px""><b>53%</b></p>
                        </div>","P_2_5_O",""
"","","","","","html-keyboard-response","184","512374","0.0-2.0-10.0-0.0-0.4","43","1","2022-04-05 08:11:26","c79472ad15d8b617a4d57d5bf56a810f","128.250.0.105","Mozilla/5.0 (Macintosh; Intel Mac OS X 10_14_6) AppleWebKit/537.36 (KHTML, like Gecko) Chrome/99.0.4844.84 Safari/537.36","Macintosh","Chrome","99.0.4844.84","OS X","10_14_6","null","null","","","<p style=""font-size:64px;"">+</p>","P_2_5_O",""
"","","","","","html-keyboard-response","185","513627","0.0-2.0-10.0-0.0-1.4","43","1","2022-04-05 08:11:26","c79472ad15d8b617a4d57d5bf56a810f","128.250.0.105","Mozilla/5.0 (Macintosh; Intel Mac OS X 10_14_6) AppleWebKit/537.36 (KHTML, like Gecko) Chrome/99.0.4844.84 Safari/537.36","Macintosh","Chrome","99.0.4844.84","OS X","10_14_6","null","null","","","
                        <div class=pink>
                        <div class=""centered"">
                            <p style=""font-size: 24px""><b>55%</b></p>
                        </div>","P_2_5_O",""
"","","","","","html-keyboard-response","186","514029","0.0-2.0-10.0-0.0-0.5","43","1","2022-04-05 08:11:26","c79472ad15d8b617a4d57d5bf56a810f","128.250.0.105","Mozilla/5.0 (Macintosh; Intel Mac OS X 10_14_6) AppleWebKit/537.36 (KHTML, like Gecko) Chrome/99.0.4844.84 Safari/537.36","Macintosh","Chrome","99.0.4844.84","OS X","10_14_6","null","null","","","<p style=""font-size:64px;"">+</p>","P_2_5_O",""
"","","","","","html-keyboard-response","187","515286","0.0-2.0-10.0-0.0-1.5","43","1","2022-04-05 08:11:26","c79472ad15d8b617a4d57d5bf56a810f","128.250.0.105","Mozilla/5.0 (Macintosh; Intel Mac OS X 10_14_6) AppleWebKit/537.36 (KHTML, like Gecko) Chrome/99.0.4844.84 Safari/537.36","Macintosh","Chrome","99.0.4844.84","OS X","10_14_6","null","null","","","
                        <div class=orange>
                        <div class=""centered"">
                            <p style=""font-size: 24px""><b>52%</b></p>
                        </div>","P_2_5_O",""
"","","","","","html-keyboard-response","188","515691","0.0-2.0-10.0-1.0-0.0","43","1","2022-04-05 08:11:26","c79472ad15d8b617a4d57d5bf56a810f","128.250.0.105","Mozilla/5.0 (Macintosh; Intel Mac OS X 10_14_6) AppleWebKit/537.36 (KHTML, like Gecko) Chrome/99.0.4844.84 Safari/537.36","Macintosh","Chrome","99.0.4844.84","OS X","10_14_6","null","null","","","<p style=""font-size:64px;"">+</p>","P_2_5_O",""
"","","","","","html-keyboard-response","189","516945","0.0-2.0-10.0-1.0-1.0","43","1","2022-04-05 08:11:26","c79472ad15d8b617a4d57d5bf56a810f","128.250.0.105","Mozilla/5.0 (Macintosh; Intel Mac OS X 10_14_6) AppleWebKit/537.36 (KHTML, like Gecko) Chrome/99.0.4844.84 Safari/537.36","Macintosh","Chrome","99.0.4844.84","OS X","10_14_6","null","null","","","
                        <div class=""orange"">
                        <div class=""centered"">
                            <p style=""font-size: 24px""><b>50%</b></p>
                        </div>","P_2_5_O",""
"","","","","","html-slider-response","190","521269","0.0-2.0-10.0-2.0","43","1","2022-04-05 08:11:26","c79472ad15d8b617a4d57d5bf56a810f","128.250.0.105","Mozilla/5.0 (Macintosh; Intel Mac OS X 10_14_6) AppleWebKit/537.36 (KHTML, like Gecko) Chrome/99.0.4844.84 Safari/537.36","Macintosh","Chrome","99.0.4844.84","OS X","10_14_6","4323.199999999255","25","","","<div style=""width: 500px; height: 100px;""><p>Place your bid for more information.</p></div>","infoBid","5"
"","","","","","html-keyboard-response","191","521670","0.0-2.0-10.0-3.0-0.0","43","1","2022-04-05 08:11:26","c79472ad15d8b617a4d57d5bf56a810f","128.250.0.105","Mozilla/5.0 (Macintosh; Intel Mac OS X 10_14_6) AppleWebKit/537.36 (KHTML, like Gecko) Chrome/99.0.4844.84 Safari/537.36","Macintosh","Chrome","99.0.4844.84","OS X","10_14_6","null","null","","","<p style=""font-size:64px;"">+</p>","P_2_5_O",""
"","","","","","html-keyboard-response","192","522923","0.0-2.0-10.0-3.0-1.0","43","1","2022-04-05 08:11:26","c79472ad15d8b617a4d57d5bf56a810f","128.250.0.105","Mozilla/5.0 (Macintosh; Intel Mac OS X 10_14_6) AppleWebKit/537.36 (KHTML, like Gecko) Chrome/99.0.4844.84 Safari/537.36","Macintosh","Chrome","99.0.4844.84","OS X","10_14_6","null","null","","","<div class=""grey"">
                <div class=""centered"">
                    <p style=""font-size: 24px""><b>???</b></p>
                </div>","P_2_5_O",""
