"success","timeout","failed_images","failed_audio","failed_video","trial_type","trial_index","time_elapsed","internal_node_id","run_id","condition","recorded_at","source_code_version","ip","user_agent","device","browser","browser_version","platform","platform_version","rt","response","question_order","view_history","stimulus","trial_name","slider_start"
"true","false","[]","[]","[]","preload","0","239","0.0-0.0","27","1","2022-04-03 11:45:51","c79472ad15d8b617a4d57d5bf56a810f","124.122.192.20","Mozilla/5.0 (Macintosh; Intel Mac OS X 10_15_7) AppleWebKit/537.36 (KHTML, like Gecko) Chrome/99.0.4844.84 Safari/537.36","Macintosh","Chrome","99.0.4844.84","OS X","10_15_7","","","","","","",""
"","","","","","survey-multi-choice","1","3037","0.0-1.0-0.0","27","1","2022-04-03 11:45:51","c79472ad15d8b617a4d57d5bf56a810f","124.122.192.20","Mozilla/5.0 (Macintosh; Intel Mac OS X 10_15_7) AppleWebKit/537.36 (KHTML, like Gecko) Chrome/99.0.4844.84 Safari/537.36","Macintosh","Chrome","99.0.4844.84","OS X","10_15_7","2797.199999988079","{""Gender"":""Male""}","[0]","","","",""
"","","","","","survey-text","2","6103","0.0-1.0-1.0","27","1","2022-04-03 11:45:51","c79472ad15d8b617a4d57d5bf56a810f","124.122.192.20","Mozilla/5.0 (Macintosh; Intel Mac OS X 10_15_7) AppleWebKit/537.36 (KHTML, like Gecko) Chrome/99.0.4844.84 Safari/537.36","Macintosh","Chrome","99.0.4844.84","OS X","10_15_7","3064.800000011921","{""Age"":""23""}","","","","",""
"","","","","","instructions","3","223287","0.0-1.0-2.0","27","1","2022-04-03 11:45:51","c79472ad15d8b617a4d57d5bf56a810f","124.122.192.20","Mozilla/5.0 (Macintosh; Intel Mac OS X 10_15_7) AppleWebKit/537.36 (KHTML, like Gecko) Chrome/99.0.4844.84 Safari/537.36","Macintosh","Chrome","99.0.4844.84","OS X","10_15_7","217194.60000000894","","","[{""page_index"":0,""viewing_time"":1787.7999999970198},{""page_index"":1,""viewing_time"":6649.100000008941},{""page_index"":2,""viewing_time"":21659.20000000298},{""page_index"":3,""viewing_time"":8524.699999988079},{""page_index"":4,""viewing_time"":15263.800000011921},{""page_index"":5,""viewing_time"":8813},{""page_index"":6,""viewing_time"":13343.699999988079},{""page_index"":7,""viewing_time"":4580.4000000059605},{""page_index"":6,""viewing_time"":10916.59999999404},{""page_index"":7,""viewing_time"":41582.80000001192},{""page_index"":8,""viewing_time"":16938},{""page_index"":9,""viewing_time"":9320.09999999404},{""page_index"":10,""viewing_time"":4269.0999999940395},{""page_index"":11,""viewing_time"":45401.5},{""page_index"":12,""viewing_time"":6157.9000000059605},{""page_index"":13,""viewing_time"":1986}]","","",""
"","","","","","html-keyboard-response","4","223693","0.0-2.0-0.0-0.0-0.0","27","1","2022-04-03 11:45:51","c79472ad15d8b617a4d57d5bf56a810f","124.122.192.20","Mozilla/5.0 (Macintosh; Intel Mac OS X 10_15_7) AppleWebKit/537.36 (KHTML, like Gecko) Chrome/99.0.4844.84 Safari/537.36","Macintosh","Chrome","99.0.4844.84","OS X","10_15_7","null","null","","","<p style=""font-size:64px;"">+</p>","O_6_3_P",""
"","","","","","html-keyboard-response","5","224950","0.0-2.0-0.0-0.0-1.0","27","1","2022-04-03 11:45:51","c79472ad15d8b617a4d57d5bf56a810f","124.122.192.20","Mozilla/5.0 (Macintosh; Intel Mac OS X 10_15_7) AppleWebKit/537.36 (KHTML, like Gecko) Chrome/99.0.4844.84 Safari/537.36","Macintosh","Chrome","99.0.4844.84","OS X","10_15_7","null","null","","","
                        <div class=orange>
                        <div class=""centered"">
                            <p style=""font-size: 24px""><b>55%</b></p>
                        </div>","O_6_3_P",""
"","","","","","html-keyboard-response","6","225359","0.0-2.0-0.0-0.0-0.1","27","1","2022-04-03 11:45:51","c79472ad15d8b617a4d57d5bf56a810f","124.122.192.20","Mozilla/5.0 (Macintosh; Intel Mac OS X 10_15_7) AppleWebKit/537.36 (KHTML, like Gecko) Chrome/99.0.4844.84 Safari/537.36","Macintosh","Chrome","99.0.4844.84","OS X","10_15_7","null","null","","","<p style=""font-size:64px;"">+</p>","O_6_3_P",""
"","","","","","html-keyboard-response","7","226614","0.0-2.0-0.0-0.0-1.1","27","1","2022-04-03 11:45:51","c79472ad15d8b617a4d57d5bf56a810f","124.122.192.20","Mozilla/5.0 (Macintosh; Intel Mac OS X 10_15_7) AppleWebKit/537.36 (KHTML, like Gecko) Chrome/99.0.4844.84 Safari/537.36","Macintosh","Chrome","99.0.4844.84","OS X","10_15_7","null","null","","","
                        <div class=orange>
                        <div class=""centered"">
                            <p style=""font-size: 24px""><b>53%</b></p>
                        </div>","O_6_3_P",""
"","","","","","html-keyboard-response","8","227019","0.0-2.0-0.0-0.0-0.2","27","1","2022-04-03 11:45:51","c79472ad15d8b617a4d57d5bf56a810f","124.122.192.20","Mozilla/5.0 (Macintosh; Intel Mac OS X 10_15_7) AppleWebKit/537.36 (KHTML, like Gecko) Chrome/99.0.4844.84 Safari/537.36","Macintosh","Chrome","99.0.4844.84","OS X","10_15_7","null","null","","","<p style=""font-size:64px;"">+</p>","O_6_3_P",""
"","","","","","html-keyboard-response","9","228276","0.0-2.0-0.0-0.0-1.2","27","1","2022-04-03 11:45:51","c79472ad15d8b617a4d57d5bf56a810f","124.122.192.20","Mozilla/5.0 (Macintosh; Intel Mac OS X 10_15_7) AppleWebKit/537.36 (KHTML, like Gecko) Chrome/99.0.4844.84 Safari/537.36","Macintosh","Chrome","99.0.4844.84","OS X","10_15_7","null","null","","","
                        <div class=pink>
                        <div class=""centered"">
                            <p style=""font-size: 24px""><b>52%</b></p>
                        </div>","O_6_3_P",""
"","","","","","html-keyboard-response","10","228684","0.0-2.0-0.0-0.0-0.3","27","1","2022-04-03 11:45:51","c79472ad15d8b617a4d57d5bf56a810f","124.122.192.20","Mozilla/5.0 (Macintosh; Intel Mac OS X 10_15_7) AppleWebKit/537.36 (KHTML, like Gecko) Chrome/99.0.4844.84 Safari/537.36","Macintosh","Chrome","99.0.4844.84","OS X","10_15_7","null","null","","","<p style=""font-size:64px;"">+</p>","O_6_3_P",""
"","","","","","html-keyboard-response","11","229943","0.0-2.0-0.0-0.0-1.3","27","1","2022-04-03 11:45:51","c79472ad15d8b617a4d57d5bf56a810f","124.122.192.20","Mozilla/5.0 (Macintosh; Intel Mac OS X 10_15_7) AppleWebKit/537.36 (KHTML, like Gecko) Chrome/99.0.4844.84 Safari/537.36","Macintosh","Chrome","99.0.4844.84","OS X","10_15_7","null","null","","","
                        <div class=pink>
                        <div class=""centered"">
                            <p style=""font-size: 24px""><b>52%</b></p>
                        </div>","O_6_3_P",""
"","","","","","html-keyboard-response","12","230348","0.0-2.0-0.0-0.0-0.4","27","1","2022-04-03 11:45:51","c79472ad15d8b617a4d57d5bf56a810f","124.122.192.20","Mozilla/5.0 (Macintosh; Intel Mac OS X 10_15_7) AppleWebKit/537.36 (KHTML, like Gecko) Chrome/99.0.4844.84 Safari/537.36","Macintosh","Chrome","99.0.4844.84","OS X","10_15_7","null","null","","","<p style=""font-size:64px;"">+</p>","O_6_3_P",""
"","","","","","html-keyboard-response","13","231606","0.0-2.0-0.0-0.0-1.4","27","1","2022-04-03 11:45:51","c79472ad15d8b617a4d57d5bf56a810f","124.122.192.20","Mozilla/5.0 (Macintosh; Intel Mac OS X 10_15_7) AppleWebKit/537.36 (KHTML, like Gecko) Chrome/99.0.4844.84 Safari/537.36","Macintosh","Chrome","99.0.4844.84","OS X","10_15_7","null","null","","","
                        <div class=orange>
                        <div class=""centered"">
                            <p style=""font-size: 24px""><b>55%</b></p>
                        </div>","O_6_3_P",""
"","","","","","html-keyboard-response","14","232015","0.0-2.0-0.0-0.0-0.5","27","1","2022-04-03 11:45:51","c79472ad15d8b617a4d57d5bf56a810f","124.122.192.20","Mozilla/5.0 (Macintosh; Intel Mac OS X 10_15_7) AppleWebKit/537.36 (KHTML, like Gecko) Chrome/99.0.4844.84 Safari/537.36","Macintosh","Chrome","99.0.4844.84","OS X","10_15_7","null","null","","","<p style=""font-size:64px;"">+</p>","O_6_3_P",""
"","","","","","html-keyboard-response","15","233271","0.0-2.0-0.0-0.0-1.5","27","1","2022-04-03 11:45:51","c79472ad15d8b617a4d57d5bf56a810f","124.122.192.20","Mozilla/5.0 (Macintosh; Intel Mac OS X 10_15_7) AppleWebKit/537.36 (KHTML, like Gecko) Chrome/99.0.4844.84 Safari/537.36","Macintosh","Chrome","99.0.4844.84","OS X","10_15_7","null","null","","","
                        <div class=pink>
                        <div class=""centered"">
                            <p style=""font-size: 24px""><b>53%</b></p>
                        </div>","O_6_3_P",""
"","","","","","html-keyboard-response","16","233677","0.0-2.0-0.0-1.0-0.0","27","1","2022-04-03 11:45:51","c79472ad15d8b617a4d57d5bf56a810f","124.122.192.20","Mozilla/5.0 (Macintosh; Intel Mac OS X 10_15_7) AppleWebKit/537.36 (KHTML, like Gecko) Chrome/99.0.4844.84 Safari/537.36","Macintosh","Chrome","99.0.4844.84","OS X","10_15_7","null","null","","","<p style=""font-size:64px;"">+</p>","O_6_3_P",""
"","","","","","html-keyboard-response","17","234935","0.0-2.0-0.0-1.0-1.0","27","1","2022-04-03 11:45:51","c79472ad15d8b617a4d57d5bf56a810f","124.122.192.20","Mozilla/5.0 (Macintosh; Intel Mac OS X 10_15_7) AppleWebKit/537.36 (KHTML, like Gecko) Chrome/99.0.4844.84 Safari/537.36","Macintosh","Chrome","99.0.4844.84","OS X","10_15_7","null","null","","","
                        <div class=""pink"">
                        <div class=""centered"">
                            <p style=""font-size: 24px""><b>50%</b></p>
                        </div>","O_6_3_P",""
"","","","","","html-slider-response","18","261335","0.0-2.0-0.0-2.0","27","1","2022-04-03 11:45:51","c79472ad15d8b617a4d57d5bf56a810f","124.122.192.20","Mozilla/5.0 (Macintosh; Intel Mac OS X 10_15_7) AppleWebKit/537.36 (KHTML, like Gecko) Chrome/99.0.4844.84 Safari/537.36","Macintosh","Chrome","99.0.4844.84","OS X","10_15_7","26396","32","","","<div style=""width: 500px; height: 100px;""><p>Place your bid for more information.</p></div>","infoBid","33"
"","","","","","html-keyboard-response","19","261740","0.0-2.0-0.0-3.0-0.0","27","1","2022-04-03 11:45:51","c79472ad15d8b617a4d57d5bf56a810f","124.122.192.20","Mozilla/5.0 (Macintosh; Intel Mac OS X 10_15_7) AppleWebKit/537.36 (KHTML, like Gecko) Chrome/99.0.4844.84 Safari/537.36","Macintosh","Chrome","99.0.4844.84","OS X","10_15_7","null","null","","","<p style=""font-size:64px;"">+</p>","O_6_3_P",""
"","","","","","html-keyboard-response","20","262997","0.0-2.0-0.0-3.0-1.0","27","1","2022-04-03 11:45:51","c79472ad15d8b617a4d57d5bf56a810f","124.122.192.20","Mozilla/5.0 (Macintosh; Intel Mac OS X 10_15_7) AppleWebKit/537.36 (KHTML, like Gecko) Chrome/99.0.4844.84 Safari/537.36","Macintosh","Chrome","99.0.4844.84","OS X","10_15_7","null","null","","","<div class=""grey"">
                <div class=""centered"">
                    <p style=""font-size: 24px""><b>???</b></p>
                </div>","O_6_3_P",""
"","","","","","html-keyboard-response","21","271838","0.0-2.0-0.0-4.0-0.0","27","1","2022-04-03 11:45:51","c79472ad15d8b617a4d57d5bf56a810f","124.122.192.20","Mozilla/5.0 (Macintosh; Intel Mac OS X 10_15_7) AppleWebKit/537.36 (KHTML, like Gecko) Chrome/99.0.4844.84 Safari/537.36","Macintosh","Chrome","99.0.4844.84","OS X","10_15_7","8837.79999999702","f","","","
                      <div class=""row"">

                          <div class=""column"">
                              <div class=""orange""></div>
                              <div class=""leftChoiceText"">
                                  <p style=""font-size: 32px""><b>F</b></p>
                              </div>
                          </div>

                          <div class=""column"">
                              <div class=""pink""></div>
                              <div class=""rightChoiceText"">
                                  <p style=""font-size: 32px""><b>J</b></p>
                              </div>
                          </div>

                      </div>

                      <div class=""centeredTop"">
                          Which colour do you<br>
                          predict will win?
                      </div>","O_6_3_P",""
"","","","","","html-keyboard-response","22","273345","0.0-2.0-0.0-4.0-1.0","27","1","2022-04-03 11:45:51","c79472ad15d8b617a4d57d5bf56a810f","124.122.192.20","Mozilla/5.0 (Macintosh; Intel Mac OS X 10_15_7) AppleWebKit/537.36 (KHTML, like Gecko) Chrome/99.0.4844.84 Safari/537.36","Macintosh","Chrome","99.0.4844.84","OS X","10_15_7","null","null","","","<p style=""font-size:64px;"">+</p>","O_6_3_P",""
"","","","","","html-keyboard-response","23","273751","0.0-2.0-1.0-0.0-0.0","27","1","2022-04-03 11:45:51","c79472ad15d8b617a4d57d5bf56a810f","124.122.192.20","Mozilla/5.0 (Macintosh; Intel Mac OS X 10_15_7) AppleWebKit/537.36 (KHTML, like Gecko) Chrome/99.0.4844.84 Safari/537.36","Macintosh","Chrome","99.0.4844.84","OS X","10_15_7","null","null","","","<p style=""font-size:64px;"">+</p>","Z_5_O",""
"","","","","","html-keyboard-response","24","275009","0.0-2.0-1.0-0.0-1.0","27","1","2022-04-03 11:45:51","c79472ad15d8b617a4d57d5bf56a810f","124.122.192.20","Mozilla/5.0 (Macintosh; Intel Mac OS X 10_15_7) AppleWebKit/537.36 (KHTML, like Gecko) Chrome/99.0.4844.84 Safari/537.36","Macintosh","Chrome","99.0.4844.84","OS X","10_15_7","null","null","","","
                        <div class=orange>
                        <div class=""centered"">
                            <p style=""font-size: 24px""><b>54%</b></p>
                        </div>","Z_5_O",""
"","","","","","html-keyboard-response","25","275415","0.0-2.0-1.0-0.0-0.1","27","1","2022-04-03 11:45:51","c79472ad15d8b617a4d57d5bf56a810f","124.122.192.20","Mozilla/5.0 (Macintosh; Intel Mac OS X 10_15_7) AppleWebKit/537.36 (KHTML, like Gecko) Chrome/99.0.4844.84 Safari/537.36","Macintosh","Chrome","99.0.4844.84","OS X","10_15_7","null","null","","","<p style=""font-size:64px;"">+</p>","Z_5_O",""
"","","","","","html-keyboard-response","26","276673","0.0-2.0-1.0-0.0-1.1","27","1","2022-04-03 11:45:51","c79472ad15d8b617a4d57d5bf56a810f","124.122.192.20","Mozilla/5.0 (Macintosh; Intel Mac OS X 10_15_7) AppleWebKit/537.36 (KHTML, like Gecko) Chrome/99.0.4844.84 Safari/537.36","Macintosh","Chrome","99.0.4844.84","OS X","10_15_7","null","null","","","
                        <div class=pink>
                        <div class=""centered"">
                            <p style=""font-size: 24px""><b>52%</b></p>
                        </div>","Z_5_O",""
"","","","","","html-keyboard-response","27","277079","0.0-2.0-1.0-0.0-0.2","27","1","2022-04-03 11:45:51","c79472ad15d8b617a4d57d5bf56a810f","124.122.192.20","Mozilla/5.0 (Macintosh; Intel Mac OS X 10_15_7) AppleWebKit/537.36 (KHTML, like Gecko) Chrome/99.0.4844.84 Safari/537.36","Macintosh","Chrome","99.0.4844.84","OS X","10_15_7","null","null","","","<p style=""font-size:64px;"">+</p>","Z_5_O",""
"","","","","","html-keyboard-response","28","278338","0.0-2.0-1.0-0.0-1.2","27","1","2022-04-03 11:45:51","c79472ad15d8b617a4d57d5bf56a810f","124.122.192.20","Mozilla/5.0 (Macintosh; Intel Mac OS X 10_15_7) AppleWebKit/537.36 (KHTML, like Gecko) Chrome/99.0.4844.84 Safari/537.36","Macintosh","Chrome","99.0.4844.84","OS X","10_15_7","null","null","","","
                        <div class=orange>
                        <div class=""centered"">
                            <p style=""font-size: 24px""><b>52%</b></p>
                        </div>","Z_5_O",""
"","","","","","html-keyboard-response","29","278743","0.0-2.0-1.0-0.0-0.3","27","1","2022-04-03 11:45:51","c79472ad15d8b617a4d57d5bf56a810f","124.122.192.20","Mozilla/5.0 (Macintosh; Intel Mac OS X 10_15_7) AppleWebKit/537.36 (KHTML, like Gecko) Chrome/99.0.4844.84 Safari/537.36","Macintosh","Chrome","99.0.4844.84","OS X","10_15_7","null","null","","","<p style=""font-size:64px;"">+</p>","Z_5_O",""
"","","","","","html-keyboard-response","30","280004","0.0-2.0-1.0-0.0-1.3","27","1","2022-04-03 11:45:51","c79472ad15d8b617a4d57d5bf56a810f","124.122.192.20","Mozilla/5.0 (Macintosh; Intel Mac OS X 10_15_7) AppleWebKit/537.36 (KHTML, like Gecko) Chrome/99.0.4844.84 Safari/537.36","Macintosh","Chrome","99.0.4844.84","OS X","10_15_7","null","null","","","
                        <div class=pink>
                        <div class=""centered"">
                            <p style=""font-size: 24px""><b>54%</b></p>
                        </div>","Z_5_O",""
"","","","","","html-keyboard-response","31","280412","0.0-2.0-1.0-0.0-0.4","27","1","2022-04-03 11:45:51","c79472ad15d8b617a4d57d5bf56a810f","124.122.192.20","Mozilla/5.0 (Macintosh; Intel Mac OS X 10_15_7) AppleWebKit/537.36 (KHTML, like Gecko) Chrome/99.0.4844.84 Safari/537.36","Macintosh","Chrome","99.0.4844.84","OS X","10_15_7","null","null","","","<p style=""font-size:64px;"">+</p>","Z_5_O",""
"","","","","","html-keyboard-response","32","281671","0.0-2.0-1.0-0.0-1.4","27","1","2022-04-03 11:45:51","c79472ad15d8b617a4d57d5bf56a810f","124.122.192.20","Mozilla/5.0 (Macintosh; Intel Mac OS X 10_15_7) AppleWebKit/537.36 (KHTML, like Gecko) Chrome/99.0.4844.84 Safari/537.36","Macintosh","Chrome","99.0.4844.84","OS X","10_15_7","null","null","","","
                        <div class=orange>
                        <div class=""centered"">
                            <p style=""font-size: 24px""><b>52%</b></p>
                        </div>","Z_5_O",""
"","","","","","html-keyboard-response","33","282076","0.0-2.0-1.0-0.0-0.5","27","1","2022-04-03 11:45:51","c79472ad15d8b617a4d57d5bf56a810f","124.122.192.20","Mozilla/5.0 (Macintosh; Intel Mac OS X 10_15_7) AppleWebKit/537.36 (KHTML, like Gecko) Chrome/99.0.4844.84 Safari/537.36","Macintosh","Chrome","99.0.4844.84","OS X","10_15_7","null","null","","","<p style=""font-size:64px;"">+</p>","Z_5_O",""
"","","","","","html-keyboard-response","34","283335","0.0-2.0-1.0-0.0-1.5","27","1","2022-04-03 11:45:51","c79472ad15d8b617a4d57d5bf56a810f","124.122.192.20","Mozilla/5.0 (Macintosh; Intel Mac OS X 10_15_7) AppleWebKit/537.36 (KHTML, like Gecko) Chrome/99.0.4844.84 Safari/537.36","Macintosh","Chrome","99.0.4844.84","OS X","10_15_7","null","null","","","
                        <div class=pink>
                        <div class=""centered"">
                            <p style=""font-size: 24px""><b>52%</b></p>
                        </div>","Z_5_O",""
"","","","","","html-keyboard-response","35","283742","0.0-2.0-1.0-1.0-0.0","27","1","2022-04-03 11:45:51","c79472ad15d8b617a4d57d5bf56a810f","124.122.192.20","Mozilla/5.0 (Macintosh; Intel Mac OS X 10_15_7) AppleWebKit/537.36 (KHTML, like Gecko) Chrome/99.0.4844.84 Safari/537.36","Macintosh","Chrome","99.0.4844.84","OS X","10_15_7","null","null","","","<p style=""font-size:64px;"">+</p>","Z_5_O",""
"","","","","","html-keyboard-response","36","284999","0.0-2.0-1.0-1.0-1.0","27","1","2022-04-03 11:45:51","c79472ad15d8b617a4d57d5bf56a810f","124.122.192.20","Mozilla/5.0 (Macintosh; Intel Mac OS X 10_15_7) AppleWebKit/537.36 (KHTML, like Gecko) Chrome/99.0.4844.84 Safari/537.36","Macintosh","Chrome","99.0.4844.84","OS X","10_15_7","null","null","","","
                        <div class=""orange"">
                        <div class=""centered"">
                            <p style=""font-size: 24px""><b>50%</b></p>
                        </div>","Z_5_O",""
"","","","","","html-slider-response","37","292068","0.0-2.0-1.0-2.0","27","1","2022-04-03 11:45:51","c79472ad15d8b617a4d57d5bf56a810f","124.122.192.20","Mozilla/5.0 (Macintosh; Intel Mac OS X 10_15_7) AppleWebKit/537.36 (KHTML, like Gecko) Chrome/99.0.4844.84 Safari/537.36","Macintosh","Chrome","99.0.4844.84","OS X","10_15_7","7064.79999999702","16","","","<div style=""width: 500px; height: 100px;""><p>Place your bid for more information.</p></div>","infoBid","3"
"","","","","","html-keyboard-response","38","292473","0.0-2.0-1.0-3.0-0.0","27","1","2022-04-03 11:45:51","c79472ad15d8b617a4d57d5bf56a810f","124.122.192.20","Mozilla/5.0 (Macintosh; Intel Mac OS X 10_15_7) AppleWebKit/537.36 (KHTML, like Gecko) Chrome/99.0.4844.84 Safari/537.36","Macintosh","Chrome","99.0.4844.84","OS X","10_15_7","null","null","","","<p style=""font-size:64px;"">+</p>","Z_5_O",""
"","","","","","html-keyboard-response","39","293726","0.0-2.0-1.0-3.0-1.0","27","1","2022-04-03 11:45:51","c79472ad15d8b617a4d57d5bf56a810f","124.122.192.20","Mozilla/5.0 (Macintosh; Intel Mac OS X 10_15_7) AppleWebKit/537.36 (KHTML, like Gecko) Chrome/99.0.4844.84 Safari/537.36","Macintosh","Chrome","99.0.4844.84","OS X","10_15_7","null","null","","","<div class=""grey"">
                <div class=""centered"">
                    <p style=""font-size: 24px""><b>???</b></p>
                </div>","Z_5_O",""
"","","","","","html-keyboard-response","40","295359","0.0-2.0-1.0-4.0-0.0","27","1","2022-04-03 11:45:51","c79472ad15d8b617a4d57d5bf56a810f","124.122.192.20","Mozilla/5.0 (Macintosh; Intel Mac OS X 10_15_7) AppleWebKit/537.36 (KHTML, like Gecko) Chrome/99.0.4844.84 Safari/537.36","Macintosh","Chrome","99.0.4844.84","OS X","10_15_7","1629.5","j","","","
                      <div class=""row"">

                          <div class=""column"">
                              <div class=""orange""></div>
                              <div class=""leftChoiceText"">
                                  <p style=""font-size: 32px""><b>F</b></p>
                              </div>
                          </div>

                          <div class=""column"">
                              <div class=""pink""></div>
                              <div class=""rightChoiceText"">
                                  <p style=""font-size: 32px""><b>J</b></p>
                              </div>
                          </div>

                      </div>

                      <div class=""centeredTop"">
                          Which colour do you<br>
                          predict will win?
                      </div>","Z_5_O",""
"","","","","","html-keyboard-response","41","296866","0.0-2.0-1.0-4.0-1.0","27","1","2022-04-03 11:45:51","c79472ad15d8b617a4d57d5bf56a810f","124.122.192.20","Mozilla/5.0 (Macintosh; Intel Mac OS X 10_15_7) AppleWebKit/537.36 (KHTML, like Gecko) Chrome/99.0.4844.84 Safari/537.36","Macintosh","Chrome","99.0.4844.84","OS X","10_15_7","null","null","","","<p style=""font-size:64px;"">+</p>","Z_5_O",""
"","","","","","html-keyboard-response","42","297274","0.0-2.0-2.0-0.0-0.0","27","1","2022-04-03 11:45:51","c79472ad15d8b617a4d57d5bf56a810f","124.122.192.20","Mozilla/5.0 (Macintosh; Intel Mac OS X 10_15_7) AppleWebKit/537.36 (KHTML, like Gecko) Chrome/99.0.4844.84 Safari/537.36","Macintosh","Chrome","99.0.4844.84","OS X","10_15_7","null","null","","","<p style=""font-size:64px;"">+</p>","P_4_4_P",""
"","","","","","html-keyboard-response","43","298532","0.0-2.0-2.0-0.0-1.0","27","1","2022-04-03 11:45:51","c79472ad15d8b617a4d57d5bf56a810f","124.122.192.20","Mozilla/5.0 (Macintosh; Intel Mac OS X 10_15_7) AppleWebKit/537.36 (KHTML, like Gecko) Chrome/99.0.4844.84 Safari/537.36","Macintosh","Chrome","99.0.4844.84","OS X","10_15_7","null","null","","","
                        <div class=pink>
                        <div class=""centered"">
                            <p style=""font-size: 24px""><b>55%</b></p>
                        </div>","P_4_4_P",""
"","","","","","html-keyboard-response","44","298940","0.0-2.0-2.0-0.0-0.1","27","1","2022-04-03 11:45:51","c79472ad15d8b617a4d57d5bf56a810f","124.122.192.20","Mozilla/5.0 (Macintosh; Intel Mac OS X 10_15_7) AppleWebKit/537.36 (KHTML, like Gecko) Chrome/99.0.4844.84 Safari/537.36","Macintosh","Chrome","99.0.4844.84","OS X","10_15_7","null","null","","","<p style=""font-size:64px;"">+</p>","P_4_4_P",""
"","","","","","html-keyboard-response","45","300199","0.0-2.0-2.0-0.0-1.1","27","1","2022-04-03 11:45:51","c79472ad15d8b617a4d57d5bf56a810f","124.122.192.20","Mozilla/5.0 (Macintosh; Intel Mac OS X 10_15_7) AppleWebKit/537.36 (KHTML, like Gecko) Chrome/99.0.4844.84 Safari/537.36","Macintosh","Chrome","99.0.4844.84","OS X","10_15_7","null","null","","","
                        <div class=orange>
                        <div class=""centered"">
                            <p style=""font-size: 24px""><b>52%</b></p>
                        </div>","P_4_4_P",""
"","","","","","html-keyboard-response","46","300604","0.0-2.0-2.0-0.0-0.2","27","1","2022-04-03 11:45:51","c79472ad15d8b617a4d57d5bf56a810f","124.122.192.20","Mozilla/5.0 (Macintosh; Intel Mac OS X 10_15_7) AppleWebKit/537.36 (KHTML, like Gecko) Chrome/99.0.4844.84 Safari/537.36","Macintosh","Chrome","99.0.4844.84","OS X","10_15_7","null","null","","","<p style=""font-size:64px;"">+</p>","P_4_4_P",""
"","","","","","html-keyboard-response","47","301863","0.0-2.0-2.0-0.0-1.2","27","1","2022-04-03 11:45:51","c79472ad15d8b617a4d57d5bf56a810f","124.122.192.20","Mozilla/5.0 (Macintosh; Intel Mac OS X 10_15_7) AppleWebKit/537.36 (KHTML, like Gecko) Chrome/99.0.4844.84 Safari/537.36","Macintosh","Chrome","99.0.4844.84","OS X","10_15_7","null","null","","","
                        <div class=pink>
                        <div class=""centered"">
                            <p style=""font-size: 24px""><b>54%</b></p>
                        </div>","P_4_4_P",""
"","","","","","html-keyboard-response","48","302269","0.0-2.0-2.0-0.0-0.3","27","1","2022-04-03 11:45:51","c79472ad15d8b617a4d57d5bf56a810f","124.122.192.20","Mozilla/5.0 (Macintosh; Intel Mac OS X 10_15_7) AppleWebKit/537.36 (KHTML, like Gecko) Chrome/99.0.4844.84 Safari/537.36","Macintosh","Chrome","99.0.4844.84","OS X","10_15_7","null","null","","","<p style=""font-size:64px;"">+</p>","P_4_4_P",""
"","","","","","html-keyboard-response","49","303526","0.0-2.0-2.0-0.0-1.3","27","1","2022-04-03 11:45:51","c79472ad15d8b617a4d57d5bf56a810f","124.122.192.20","Mozilla/5.0 (Macintosh; Intel Mac OS X 10_15_7) AppleWebKit/537.36 (KHTML, like Gecko) Chrome/99.0.4844.84 Safari/537.36","Macintosh","Chrome","99.0.4844.84","OS X","10_15_7","null","null","","","
                        <div class=orange>
                        <div class=""centered"">
                            <p style=""font-size: 24px""><b>55%</b></p>
                        </div>","P_4_4_P",""
"","","","","","html-keyboard-response","50","303930","0.0-2.0-2.0-0.0-0.4","27","1","2022-04-03 11:45:51","c79472ad15d8b617a4d57d5bf56a810f","124.122.192.20","Mozilla/5.0 (Macintosh; Intel Mac OS X 10_15_7) AppleWebKit/537.36 (KHTML, like Gecko) Chrome/99.0.4844.84 Safari/537.36","Macintosh","Chrome","99.0.4844.84","OS X","10_15_7","null","null","","","<p style=""font-size:64px;"">+</p>","P_4_4_P",""
"","","","","","html-keyboard-response","51","305189","0.0-2.0-2.0-0.0-1.4","27","1","2022-04-03 11:45:51","c79472ad15d8b617a4d57d5bf56a810f","124.122.192.20","Mozilla/5.0 (Macintosh; Intel Mac OS X 10_15_7) AppleWebKit/537.36 (KHTML, like Gecko) Chrome/99.0.4844.84 Safari/537.36","Macintosh","Chrome","99.0.4844.84","OS X","10_15_7","null","null","","","
                        <div class=pink>
                        <div class=""centered"">
                            <p style=""font-size: 24px""><b>54%</b></p>
                        </div>","P_4_4_P",""
"","","","","","html-keyboard-response","52","305597","0.0-2.0-2.0-0.0-0.5","27","1","2022-04-03 11:45:51","c79472ad15d8b617a4d57d5bf56a810f","124.122.192.20","Mozilla/5.0 (Macintosh; Intel Mac OS X 10_15_7) AppleWebKit/537.36 (KHTML, like Gecko) Chrome/99.0.4844.84 Safari/537.36","Macintosh","Chrome","99.0.4844.84","OS X","10_15_7","null","null","","","<p style=""font-size:64px;"">+</p>","P_4_4_P",""
"","","","","","html-keyboard-response","53","306854","0.0-2.0-2.0-0.0-1.5","27","1","2022-04-03 11:45:51","c79472ad15d8b617a4d57d5bf56a810f","124.122.192.20","Mozilla/5.0 (Macintosh; Intel Mac OS X 10_15_7) AppleWebKit/537.36 (KHTML, like Gecko) Chrome/99.0.4844.84 Safari/537.36","Macintosh","Chrome","99.0.4844.84","OS X","10_15_7","null","null","","","
                        <div class=orange>
                        <div class=""centered"">
                            <p style=""font-size: 24px""><b>52%</b></p>
                        </div>","P_4_4_P",""
"","","","","","html-keyboard-response","54","307259","0.0-2.0-2.0-1.0-0.0","27","1","2022-04-03 11:45:51","c79472ad15d8b617a4d57d5bf56a810f","124.122.192.20","Mozilla/5.0 (Macintosh; Intel Mac OS X 10_15_7) AppleWebKit/537.36 (KHTML, like Gecko) Chrome/99.0.4844.84 Safari/537.36","Macintosh","Chrome","99.0.4844.84","OS X","10_15_7","null","null","","","<p style=""font-size:64px;"">+</p>","P_4_4_P",""
"","","","","","html-keyboard-response","55","308516","0.0-2.0-2.0-1.0-1.0","27","1","2022-04-03 11:45:51","c79472ad15d8b617a4d57d5bf56a810f","124.122.192.20","Mozilla/5.0 (Macintosh; Intel Mac OS X 10_15_7) AppleWebKit/537.36 (KHTML, like Gecko) Chrome/99.0.4844.84 Safari/537.36","Macintosh","Chrome","99.0.4844.84","OS X","10_15_7","null","null","","","
                        <div class=""pink"">
                        <div class=""centered"">
                            <p style=""font-size: 24px""><b>50%</b></p>
                        </div>","P_4_4_P",""
"","","","","","html-slider-response","56","317446","0.0-2.0-2.0-2.0","27","1","2022-04-03 11:45:51","c79472ad15d8b617a4d57d5bf56a810f","124.122.192.20","Mozilla/5.0 (Macintosh; Intel Mac OS X 10_15_7) AppleWebKit/537.36 (KHTML, like Gecko) Chrome/99.0.4844.84 Safari/537.36","Macintosh","Chrome","99.0.4844.84","OS X","10_15_7","8926","24","","","<div style=""width: 500px; height: 100px;""><p>Place your bid for more information.</p></div>","infoBid","47"
"","","","","","html-keyboard-response","57","317850","0.0-2.0-2.0-3.0-0.0","27","1","2022-04-03 11:45:51","c79472ad15d8b617a4d57d5bf56a810f","124.122.192.20","Mozilla/5.0 (Macintosh; Intel Mac OS X 10_15_7) AppleWebKit/537.36 (KHTML, like Gecko) Chrome/99.0.4844.84 Safari/537.36","Macintosh","Chrome","99.0.4844.84","OS X","10_15_7","null","null","","","<p style=""font-size:64px;"">+</p>","P_4_4_P",""
"","","","","","html-keyboard-response","58","319105","0.0-2.0-2.0-3.0-1.0","27","1","2022-04-03 11:45:51","c79472ad15d8b617a4d57d5bf56a810f","124.122.192.20","Mozilla/5.0 (Macintosh; Intel Mac OS X 10_15_7) AppleWebKit/537.36 (KHTML, like Gecko) Chrome/99.0.4844.84 Safari/537.36","Macintosh","Chrome","99.0.4844.84","OS X","10_15_7","null","null","","","<div class=orange>
                <div class=""centered"">
                    <p style=""font-size: 24px""><b>53%</b></p>
                </div>","P_4_4_P",""
"","","","","","html-keyboard-response","59","321246","0.0-2.0-2.0-4.0-0.0","27","1","2022-04-03 11:45:51","c79472ad15d8b617a4d57d5bf56a810f","124.122.192.20","Mozilla/5.0 (Macintosh; Intel Mac OS X 10_15_7) AppleWebKit/537.36 (KHTML, like Gecko) Chrome/99.0.4844.84 Safari/537.36","Macintosh","Chrome","99.0.4844.84","OS X","10_15_7","2140","f","","","
                      <div class=""row"">

                          <div class=""column"">
                              <div class=""orange""></div>
                              <div class=""leftChoiceText"">
                                  <p style=""font-size: 32px""><b>F</b></p>
                              </div>
                          </div>

                          <div class=""column"">
                              <div class=""pink""></div>
                              <div class=""rightChoiceText"">
                                  <p style=""font-size: 32px""><b>J</b></p>
                              </div>
                          </div>

                      </div>

                      <div class=""centeredTop"">
                          Which colour do you<br>
                          predict will win?
                      </div>","P_4_4_P",""
"","","","","","html-keyboard-response","60","322751","0.0-2.0-2.0-4.0-1.0","27","1","2022-04-03 11:45:51","c79472ad15d8b617a4d57d5bf56a810f","124.122.192.20","Mozilla/5.0 (Macintosh; Intel Mac OS X 10_15_7) AppleWebKit/537.36 (KHTML, like Gecko) Chrome/99.0.4844.84 Safari/537.36","Macintosh","Chrome","99.0.4844.84","OS X","10_15_7","null","null","","","<p style=""font-size:64px;"">+</p>","P_4_4_P",""
"","","","","","html-keyboard-response","61","323157","0.0-2.0-3.0-0.0-0.0","27","1","2022-04-03 11:45:51","c79472ad15d8b617a4d57d5bf56a810f","124.122.192.20","Mozilla/5.0 (Macintosh; Intel Mac OS X 10_15_7) AppleWebKit/537.36 (KHTML, like Gecko) Chrome/99.0.4844.84 Safari/537.36","Macintosh","Chrome","99.0.4844.84","OS X","10_15_7","null","null","","","<p style=""font-size:64px;"">+</p>","Z_6_P",""
"","","","","","html-keyboard-response","62","324411","0.0-2.0-3.0-0.0-1.0","27","1","2022-04-03 11:45:51","c79472ad15d8b617a4d57d5bf56a810f","124.122.192.20","Mozilla/5.0 (Macintosh; Intel Mac OS X 10_15_7) AppleWebKit/537.36 (KHTML, like Gecko) Chrome/99.0.4844.84 Safari/537.36","Macintosh","Chrome","99.0.4844.84","OS X","10_15_7","null","null","","","
                        <div class=pink>
                        <div class=""centered"">
                            <p style=""font-size: 24px""><b>54%</b></p>
                        </div>","Z_6_P",""
"","","","","","html-keyboard-response","63","324816","0.0-2.0-3.0-0.0-0.1","27","1","2022-04-03 11:45:51","c79472ad15d8b617a4d57d5bf56a810f","124.122.192.20","Mozilla/5.0 (Macintosh; Intel Mac OS X 10_15_7) AppleWebKit/537.36 (KHTML, like Gecko) Chrome/99.0.4844.84 Safari/537.36","Macintosh","Chrome","99.0.4844.84","OS X","10_15_7","null","null","","","<p style=""font-size:64px;"">+</p>","Z_6_P",""
"","","","","","html-keyboard-response","64","326069","0.0-2.0-3.0-0.0-1.1","27","1","2022-04-03 11:45:51","c79472ad15d8b617a4d57d5bf56a810f","124.122.192.20","Mozilla/5.0 (Macintosh; Intel Mac OS X 10_15_7) AppleWebKit/537.36 (KHTML, like Gecko) Chrome/99.0.4844.84 Safari/537.36","Macintosh","Chrome","99.0.4844.84","OS X","10_15_7","null","null","","","
                        <div class=orange>
                        <div class=""centered"">
                            <p style=""font-size: 24px""><b>55%</b></p>
                        </div>","Z_6_P",""
"","","","","","html-keyboard-response","65","326474","0.0-2.0-3.0-0.0-0.2","27","1","2022-04-03 11:45:51","c79472ad15d8b617a4d57d5bf56a810f","124.122.192.20","Mozilla/5.0 (Macintosh; Intel Mac OS X 10_15_7) AppleWebKit/537.36 (KHTML, like Gecko) Chrome/99.0.4844.84 Safari/537.36","Macintosh","Chrome","99.0.4844.84","OS X","10_15_7","null","null","","","<p style=""font-size:64px;"">+</p>","Z_6_P",""
"","","","","","html-keyboard-response","66","327728","0.0-2.0-3.0-0.0-1.2","27","1","2022-04-03 11:45:51","c79472ad15d8b617a4d57d5bf56a810f","124.122.192.20","Mozilla/5.0 (Macintosh; Intel Mac OS X 10_15_7) AppleWebKit/537.36 (KHTML, like Gecko) Chrome/99.0.4844.84 Safari/537.36","Macintosh","Chrome","99.0.4844.84","OS X","10_15_7","null","null","","","
                        <div class=orange>
                        <div class=""centered"">
                            <p style=""font-size: 24px""><b>55%</b></p>
                        </div>","Z_6_P",""
"","","","","","html-keyboard-response","67","328133","0.0-2.0-3.0-0.0-0.3","27","1","2022-04-03 11:45:51","c79472ad15d8b617a4d57d5bf56a810f","124.122.192.20","Mozilla/5.0 (Macintosh; Intel Mac OS X 10_15_7) AppleWebKit/537.36 (KHTML, like Gecko) Chrome/99.0.4844.84 Safari/537.36","Macintosh","Chrome","99.0.4844.84","OS X","10_15_7","null","null","","","<p style=""font-size:64px;"">+</p>","Z_6_P",""
"","","","","","html-keyboard-response","68","329386","0.0-2.0-3.0-0.0-1.3","27","1","2022-04-03 11:45:51","c79472ad15d8b617a4d57d5bf56a810f","124.122.192.20","Mozilla/5.0 (Macintosh; Intel Mac OS X 10_15_7) AppleWebKit/537.36 (KHTML, like Gecko) Chrome/99.0.4844.84 Safari/537.36","Macintosh","Chrome","99.0.4844.84","OS X","10_15_7","null","null","","","
                        <div class=pink>
                        <div class=""centered"">
                            <p style=""font-size: 24px""><b>54%</b></p>
                        </div>","Z_6_P",""
"","","","","","html-keyboard-response","69","329792","0.0-2.0-3.0-0.0-0.4","27","1","2022-04-03 11:45:51","c79472ad15d8b617a4d57d5bf56a810f","124.122.192.20","Mozilla/5.0 (Macintosh; Intel Mac OS X 10_15_7) AppleWebKit/537.36 (KHTML, like Gecko) Chrome/99.0.4844.84 Safari/537.36","Macintosh","Chrome","99.0.4844.84","OS X","10_15_7","null","null","","","<p style=""font-size:64px;"">+</p>","Z_6_P",""
"","","","","","html-keyboard-response","70","331045","0.0-2.0-3.0-0.0-1.4","27","1","2022-04-03 11:45:51","c79472ad15d8b617a4d57d5bf56a810f","124.122.192.20","Mozilla/5.0 (Macintosh; Intel Mac OS X 10_15_7) AppleWebKit/537.36 (KHTML, like Gecko) Chrome/99.0.4844.84 Safari/537.36","Macintosh","Chrome","99.0.4844.84","OS X","10_15_7","null","null","","","
                        <div class=orange>
                        <div class=""centered"">
                            <p style=""font-size: 24px""><b>53%</b></p>
                        </div>","Z_6_P",""
"","","","","","html-keyboard-response","71","331447","0.0-2.0-3.0-0.0-0.5","27","1","2022-04-03 11:45:51","c79472ad15d8b617a4d57d5bf56a810f","124.122.192.20","Mozilla/5.0 (Macintosh; Intel Mac OS X 10_15_7) AppleWebKit/537.36 (KHTML, like Gecko) Chrome/99.0.4844.84 Safari/537.36","Macintosh","Chrome","99.0.4844.84","OS X","10_15_7","null","null","","","<p style=""font-size:64px;"">+</p>","Z_6_P",""
"","","","","","html-keyboard-response","72","332704","0.0-2.0-3.0-0.0-1.5","27","1","2022-04-03 11:45:51","c79472ad15d8b617a4d57d5bf56a810f","124.122.192.20","Mozilla/5.0 (Macintosh; Intel Mac OS X 10_15_7) AppleWebKit/537.36 (KHTML, like Gecko) Chrome/99.0.4844.84 Safari/537.36","Macintosh","Chrome","99.0.4844.84","OS X","10_15_7","null","null","","","
                        <div class=pink>
                        <div class=""centered"">
                            <p style=""font-size: 24px""><b>55%</b></p>
                        </div>","Z_6_P",""
"","","","","","html-keyboard-response","73","333108","0.0-2.0-3.0-1.0-0.0","27","1","2022-04-03 11:45:51","c79472ad15d8b617a4d57d5bf56a810f","124.122.192.20","Mozilla/5.0 (Macintosh; Intel Mac OS X 10_15_7) AppleWebKit/537.36 (KHTML, like Gecko) Chrome/99.0.4844.84 Safari/537.36","Macintosh","Chrome","99.0.4844.84","OS X","10_15_7","null","null","","","<p style=""font-size:64px;"">+</p>","Z_6_P",""
"","","","","","html-keyboard-response","74","334363","0.0-2.0-3.0-1.0-1.0","27","1","2022-04-03 11:45:51","c79472ad15d8b617a4d57d5bf56a810f","124.122.192.20","Mozilla/5.0 (Macintosh; Intel Mac OS X 10_15_7) AppleWebKit/537.36 (KHTML, like Gecko) Chrome/99.0.4844.84 Safari/537.36","Macintosh","Chrome","99.0.4844.84","OS X","10_15_7","null","null","","","
                        <div class=""pink"">
                        <div class=""centered"">
                            <p style=""font-size: 24px""><b>50%</b></p>
                        </div>","Z_6_P",""
"","","","","","html-slider-response","75","337380","0.0-2.0-3.0-2.0","27","1","2022-04-03 11:45:51","c79472ad15d8b617a4d57d5bf56a810f","124.122.192.20","Mozilla/5.0 (Macintosh; Intel Mac OS X 10_15_7) AppleWebKit/537.36 (KHTML, like Gecko) Chrome/99.0.4844.84 Safari/537.36","Macintosh","Chrome","99.0.4844.84","OS X","10_15_7","3012","28","","","<div style=""width: 500px; height: 100px;""><p>Place your bid for more information.</p></div>","infoBid","47"
"","","","","","html-keyboard-response","76","337786","0.0-2.0-3.0-3.0-0.0","27","1","2022-04-03 11:45:51","c79472ad15d8b617a4d57d5bf56a810f","124.122.192.20","Mozilla/5.0 (Macintosh; Intel Mac OS X 10_15_7) AppleWebKit/537.36 (KHTML, like Gecko) Chrome/99.0.4844.84 Safari/537.36","Macintosh","Chrome","99.0.4844.84","OS X","10_15_7","null","null","","","<p style=""font-size:64px;"">+</p>","Z_6_P",""
"","","","","","html-keyboard-response","77","339041","0.0-2.0-3.0-3.0-1.0","27","1","2022-04-03 11:45:51","c79472ad15d8b617a4d57d5bf56a810f","124.122.192.20","Mozilla/5.0 (Macintosh; Intel Mac OS X 10_15_7) AppleWebKit/537.36 (KHTML, like Gecko) Chrome/99.0.4844.84 Safari/537.36","Macintosh","Chrome","99.0.4844.84","OS X","10_15_7","null","null","","","<div class=orange>
                <div class=""centered"">
                    <p style=""font-size: 24px""><b>52%</b></p>
                </div>","Z_6_P",""
"","","","","","html-keyboard-response","78","342419","0.0-2.0-3.0-4.0-0.0","27","1","2022-04-03 11:45:51","c79472ad15d8b617a4d57d5bf56a810f","124.122.192.20","Mozilla/5.0 (Macintosh; Intel Mac OS X 10_15_7) AppleWebKit/537.36 (KHTML, like Gecko) Chrome/99.0.4844.84 Safari/537.36","Macintosh","Chrome","99.0.4844.84","OS X","10_15_7","3374.300000011921","j","","","
                      <div class=""row"">

                          <div class=""column"">
                              <div class=""orange""></div>
                              <div class=""leftChoiceText"">
                                  <p style=""font-size: 32px""><b>F</b></p>
                              </div>
                          </div>

                          <div class=""column"">
                              <div class=""pink""></div>
                              <div class=""rightChoiceText"">
                                  <p style=""font-size: 32px""><b>J</b></p>
                              </div>
                          </div>

                      </div>

                      <div class=""centeredTop"">
                          Which colour do you<br>
                          predict will win?
                      </div>","Z_6_P",""
"","","","","","html-keyboard-response","79","343926","0.0-2.0-3.0-4.0-1.0","27","1","2022-04-03 11:45:51","c79472ad15d8b617a4d57d5bf56a810f","124.122.192.20","Mozilla/5.0 (Macintosh; Intel Mac OS X 10_15_7) AppleWebKit/537.36 (KHTML, like Gecko) Chrome/99.0.4844.84 Safari/537.36","Macintosh","Chrome","99.0.4844.84","OS X","10_15_7","null","null","","","<p style=""font-size:64px;"">+</p>","Z_6_P",""
"","","","","","html-keyboard-response","80","344331","0.0-2.0-4.0-0.0-0.0","27","1","2022-04-03 11:45:51","c79472ad15d8b617a4d57d5bf56a810f","124.122.192.20","Mozilla/5.0 (Macintosh; Intel Mac OS X 10_15_7) AppleWebKit/537.36 (KHTML, like Gecko) Chrome/99.0.4844.84 Safari/537.36","Macintosh","Chrome","99.0.4844.84","OS X","10_15_7","null","null","","","<p style=""font-size:64px;"">+</p>","O_4_6_P",""
"","","","","","html-keyboard-response","81","345591","0.0-2.0-4.0-0.0-1.0","27","1","2022-04-03 11:45:51","c79472ad15d8b617a4d57d5bf56a810f","124.122.192.20","Mozilla/5.0 (Macintosh; Intel Mac OS X 10_15_7) AppleWebKit/537.36 (KHTML, like Gecko) Chrome/99.0.4844.84 Safari/537.36","Macintosh","Chrome","99.0.4844.84","OS X","10_15_7","null","null","","","
                        <div class=orange>
                        <div class=""centered"">
                            <p style=""font-size: 24px""><b>55%</b></p>
                        </div>","O_4_6_P",""
"","","","","","html-keyboard-response","82","345995","0.0-2.0-4.0-0.0-0.1","27","1","2022-04-03 11:45:51","c79472ad15d8b617a4d57d5bf56a810f","124.122.192.20","Mozilla/5.0 (Macintosh; Intel Mac OS X 10_15_7) AppleWebKit/537.36 (KHTML, like Gecko) Chrome/99.0.4844.84 Safari/537.36","Macintosh","Chrome","99.0.4844.84","OS X","10_15_7","null","null","","","<p style=""font-size:64px;"">+</p>","O_4_6_P",""
"","","","","","html-keyboard-response","83","347254","0.0-2.0-4.0-0.0-1.1","27","1","2022-04-03 11:45:51","c79472ad15d8b617a4d57d5bf56a810f","124.122.192.20","Mozilla/5.0 (Macintosh; Intel Mac OS X 10_15_7) AppleWebKit/537.36 (KHTML, like Gecko) Chrome/99.0.4844.84 Safari/537.36","Macintosh","Chrome","99.0.4844.84","OS X","10_15_7","null","null","","","
                        <div class=orange>
                        <div class=""centered"">
                            <p style=""font-size: 24px""><b>54%</b></p>
                        </div>","O_4_6_P",""
"","","","","","html-keyboard-response","84","347659","0.0-2.0-4.0-0.0-0.2","27","1","2022-04-03 11:45:51","c79472ad15d8b617a4d57d5bf56a810f","124.122.192.20","Mozilla/5.0 (Macintosh; Intel Mac OS X 10_15_7) AppleWebKit/537.36 (KHTML, like Gecko) Chrome/99.0.4844.84 Safari/537.36","Macintosh","Chrome","99.0.4844.84","OS X","10_15_7","null","null","","","<p style=""font-size:64px;"">+</p>","O_4_6_P",""
"","","","","","html-keyboard-response","85","348918","0.0-2.0-4.0-0.0-1.2","27","1","2022-04-03 11:45:51","c79472ad15d8b617a4d57d5bf56a810f","124.122.192.20","Mozilla/5.0 (Macintosh; Intel Mac OS X 10_15_7) AppleWebKit/537.36 (KHTML, like Gecko) Chrome/99.0.4844.84 Safari/537.36","Macintosh","Chrome","99.0.4844.84","OS X","10_15_7","null","null","","","
                        <div class=pink>
                        <div class=""centered"">
                            <p style=""font-size: 24px""><b>53%</b></p>
                        </div>","O_4_6_P",""
"","","","","","html-keyboard-response","86","349324","0.0-2.0-4.0-0.0-0.3","27","1","2022-04-03 11:45:51","c79472ad15d8b617a4d57d5bf56a810f","124.122.192.20","Mozilla/5.0 (Macintosh; Intel Mac OS X 10_15_7) AppleWebKit/537.36 (KHTML, like Gecko) Chrome/99.0.4844.84 Safari/537.36","Macintosh","Chrome","99.0.4844.84","OS X","10_15_7","null","null","","","<p style=""font-size:64px;"">+</p>","O_4_6_P",""
"","","","","","html-keyboard-response","87","350581","0.0-2.0-4.0-0.0-1.3","27","1","2022-04-03 11:45:51","c79472ad15d8b617a4d57d5bf56a810f","124.122.192.20","Mozilla/5.0 (Macintosh; Intel Mac OS X 10_15_7) AppleWebKit/537.36 (KHTML, like Gecko) Chrome/99.0.4844.84 Safari/537.36","Macintosh","Chrome","99.0.4844.84","OS X","10_15_7","null","null","","","
                        <div class=pink>
                        <div class=""centered"">
                            <p style=""font-size: 24px""><b>54%</b></p>
                        </div>","O_4_6_P",""
"","","","","","html-keyboard-response","88","350988","0.0-2.0-4.0-0.0-0.4","27","1","2022-04-03 11:45:51","c79472ad15d8b617a4d57d5bf56a810f","124.122.192.20","Mozilla/5.0 (Macintosh; Intel Mac OS X 10_15_7) AppleWebKit/537.36 (KHTML, like Gecko) Chrome/99.0.4844.84 Safari/537.36","Macintosh","Chrome","99.0.4844.84","OS X","10_15_7","null","null","","","<p style=""font-size:64px;"">+</p>","O_4_6_P",""
"","","","","","html-keyboard-response","89","352245","0.0-2.0-4.0-0.0-1.4","27","1","2022-04-03 11:45:51","c79472ad15d8b617a4d57d5bf56a810f","124.122.192.20","Mozilla/5.0 (Macintosh; Intel Mac OS X 10_15_7) AppleWebKit/537.36 (KHTML, like Gecko) Chrome/99.0.4844.84 Safari/537.36","Macintosh","Chrome","99.0.4844.84","OS X","10_15_7","null","null","","","
                        <div class=orange>
                        <div class=""centered"">
                            <p style=""font-size: 24px""><b>54%</b></p>
                        </div>","O_4_6_P",""
"","","","","","html-keyboard-response","90","352652","0.0-2.0-4.0-0.0-0.5","27","1","2022-04-03 11:45:51","c79472ad15d8b617a4d57d5bf56a810f","124.122.192.20","Mozilla/5.0 (Macintosh; Intel Mac OS X 10_15_7) AppleWebKit/537.36 (KHTML, like Gecko) Chrome/99.0.4844.84 Safari/537.36","Macintosh","Chrome","99.0.4844.84","OS X","10_15_7","null","null","","","<p style=""font-size:64px;"">+</p>","O_4_6_P",""
"","","","","","html-keyboard-response","91","353910","0.0-2.0-4.0-0.0-1.5","27","1","2022-04-03 11:45:51","c79472ad15d8b617a4d57d5bf56a810f","124.122.192.20","Mozilla/5.0 (Macintosh; Intel Mac OS X 10_15_7) AppleWebKit/537.36 (KHTML, like Gecko) Chrome/99.0.4844.84 Safari/537.36","Macintosh","Chrome","99.0.4844.84","OS X","10_15_7","null","null","","","
                        <div class=pink>
                        <div class=""centered"">
                            <p style=""font-size: 24px""><b>52%</b></p>
                        </div>","O_4_6_P",""
"","","","","","html-keyboard-response","92","354319","0.0-2.0-4.0-1.0-0.0","27","1","2022-04-03 11:45:51","c79472ad15d8b617a4d57d5bf56a810f","124.122.192.20","Mozilla/5.0 (Macintosh; Intel Mac OS X 10_15_7) AppleWebKit/537.36 (KHTML, like Gecko) Chrome/99.0.4844.84 Safari/537.36","Macintosh","Chrome","99.0.4844.84","OS X","10_15_7","null","null","","","<p style=""font-size:64px;"">+</p>","O_4_6_P",""
"","","","","","html-keyboard-response","93","355574","0.0-2.0-4.0-1.0-1.0","27","1","2022-04-03 11:45:51","c79472ad15d8b617a4d57d5bf56a810f","124.122.192.20","Mozilla/5.0 (Macintosh; Intel Mac OS X 10_15_7) AppleWebKit/537.36 (KHTML, like Gecko) Chrome/99.0.4844.84 Safari/537.36","Macintosh","Chrome","99.0.4844.84","OS X","10_15_7","null","null","","","
                        <div class=""pink"">
                        <div class=""centered"">
                            <p style=""font-size: 24px""><b>50%</b></p>
                        </div>","O_4_6_P",""
"","","","","","html-slider-response","94","357573","0.0-2.0-4.0-2.0","27","1","2022-04-03 11:45:51","c79472ad15d8b617a4d57d5bf56a810f","124.122.192.20","Mozilla/5.0 (Macintosh; Intel Mac OS X 10_15_7) AppleWebKit/537.36 (KHTML, like Gecko) Chrome/99.0.4844.84 Safari/537.36","Macintosh","Chrome","99.0.4844.84","OS X","10_15_7","1995.0999999940395","8","","","<div style=""width: 500px; height: 100px;""><p>Place your bid for more information.</p></div>","infoBid","19"
"","","","","","html-keyboard-response","95","357980","0.0-2.0-4.0-3.0-0.0","27","1","2022-04-03 11:45:51","c79472ad15d8b617a4d57d5bf56a810f","124.122.192.20","Mozilla/5.0 (Macintosh; Intel Mac OS X 10_15_7) AppleWebKit/537.36 (KHTML, like Gecko) Chrome/99.0.4844.84 Safari/537.36","Macintosh","Chrome","99.0.4844.84","OS X","10_15_7","null","null","","","<p style=""font-size:64px;"">+</p>","O_4_6_P",""
"","","","","","html-keyboard-response","96","359237","0.0-2.0-4.0-3.0-1.0","27","1","2022-04-03 11:45:51","c79472ad15d8b617a4d57d5bf56a810f","124.122.192.20","Mozilla/5.0 (Macintosh; Intel Mac OS X 10_15_7) AppleWebKit/537.36 (KHTML, like Gecko) Chrome/99.0.4844.84 Safari/537.36","Macintosh","Chrome","99.0.4844.84","OS X","10_15_7","null","null","","","<div class=""grey"">
                <div class=""centered"">
                    <p style=""font-size: 24px""><b>???</b></p>
                </div>","O_4_6_P",""
"","","","","","html-keyboard-response","97","360630","0.0-2.0-4.0-4.0-0.0","27","1","2022-04-03 11:45:51","c79472ad15d8b617a4d57d5bf56a810f","124.122.192.20","Mozilla/5.0 (Macintosh; Intel Mac OS X 10_15_7) AppleWebKit/537.36 (KHTML, like Gecko) Chrome/99.0.4844.84 Safari/537.36","Macintosh","Chrome","99.0.4844.84","OS X","10_15_7","1388","f","","","
                      <div class=""row"">

                          <div class=""column"">
                              <div class=""orange""></div>
                              <div class=""leftChoiceText"">
                                  <p style=""font-size: 32px""><b>F</b></p>
                              </div>
                          </div>

                          <div class=""column"">
                              <div class=""pink""></div>
                              <div class=""rightChoiceText"">
                                  <p style=""font-size: 32px""><b>J</b></p>
                              </div>
                          </div>

                      </div>

                      <div class=""centeredTop"">
                          Which colour do you<br>
                          predict will win?
                      </div>","O_4_6_P",""
"","","","","","html-keyboard-response","98","362136","0.0-2.0-4.0-4.0-1.0","27","1","2022-04-03 11:45:51","c79472ad15d8b617a4d57d5bf56a810f","124.122.192.20","Mozilla/5.0 (Macintosh; Intel Mac OS X 10_15_7) AppleWebKit/537.36 (KHTML, like Gecko) Chrome/99.0.4844.84 Safari/537.36","Macintosh","Chrome","99.0.4844.84","OS X","10_15_7","null","null","","","<p style=""font-size:64px;"">+</p>","O_4_6_P",""
"","","","","","html-keyboard-response","99","362542","0.0-2.0-5.0-0.0-0.0","27","1","2022-04-03 11:45:51","c79472ad15d8b617a4d57d5bf56a810f","124.122.192.20","Mozilla/5.0 (Macintosh; Intel Mac OS X 10_15_7) AppleWebKit/537.36 (KHTML, like Gecko) Chrome/99.0.4844.84 Safari/537.36","Macintosh","Chrome","99.0.4844.84","OS X","10_15_7","null","null","","","<p style=""font-size:64px;"">+</p>","O_4_6_O",""
"","","","","","html-keyboard-response","100","363798","0.0-2.0-5.0-0.0-1.0","27","1","2022-04-03 11:45:51","c79472ad15d8b617a4d57d5bf56a810f","124.122.192.20","Mozilla/5.0 (Macintosh; Intel Mac OS X 10_15_7) AppleWebKit/537.36 (KHTML, like Gecko) Chrome/99.0.4844.84 Safari/537.36","Macintosh","Chrome","99.0.4844.84","OS X","10_15_7","null","null","","","
                        <div class=orange>
                        <div class=""centered"">
                            <p style=""font-size: 24px""><b>54%</b></p>
                        </div>","O_4_6_O",""
"","","","","","html-keyboard-response","101","364203","0.0-2.0-5.0-0.0-0.1","27","1","2022-04-03 11:45:51","c79472ad15d8b617a4d57d5bf56a810f","124.122.192.20","Mozilla/5.0 (Macintosh; Intel Mac OS X 10_15_7) AppleWebKit/537.36 (KHTML, like Gecko) Chrome/99.0.4844.84 Safari/537.36","Macintosh","Chrome","99.0.4844.84","OS X","10_15_7","null","null","","","<p style=""font-size:64px;"">+</p>","O_4_6_O",""
"","","","","","html-keyboard-response","102","365459","0.0-2.0-5.0-0.0-1.1","27","1","2022-04-03 11:45:51","c79472ad15d8b617a4d57d5bf56a810f","124.122.192.20","Mozilla/5.0 (Macintosh; Intel Mac OS X 10_15_7) AppleWebKit/537.36 (KHTML, like Gecko) Chrome/99.0.4844.84 Safari/537.36","Macintosh","Chrome","99.0.4844.84","OS X","10_15_7","null","null","","","
                        <div class=orange>
                        <div class=""centered"">
                            <p style=""font-size: 24px""><b>54%</b></p>
                        </div>","O_4_6_O",""
"","","","","","html-keyboard-response","103","365862","0.0-2.0-5.0-0.0-0.2","27","1","2022-04-03 11:45:51","c79472ad15d8b617a4d57d5bf56a810f","124.122.192.20","Mozilla/5.0 (Macintosh; Intel Mac OS X 10_15_7) AppleWebKit/537.36 (KHTML, like Gecko) Chrome/99.0.4844.84 Safari/537.36","Macintosh","Chrome","99.0.4844.84","OS X","10_15_7","null","null","","","<p style=""font-size:64px;"">+</p>","O_4_6_O",""
"","","","","","html-keyboard-response","104","367121","0.0-2.0-5.0-0.0-1.2","27","1","2022-04-03 11:45:51","c79472ad15d8b617a4d57d5bf56a810f","124.122.192.20","Mozilla/5.0 (Macintosh; Intel Mac OS X 10_15_7) AppleWebKit/537.36 (KHTML, like Gecko) Chrome/99.0.4844.84 Safari/537.36","Macintosh","Chrome","99.0.4844.84","OS X","10_15_7","null","null","","","
                        <div class=pink>
                        <div class=""centered"">
                            <p style=""font-size: 24px""><b>52%</b></p>
                        </div>","O_4_6_O",""
"","","","","","html-keyboard-response","105","367526","0.0-2.0-5.0-0.0-0.3","27","1","2022-04-03 11:45:51","c79472ad15d8b617a4d57d5bf56a810f","124.122.192.20","Mozilla/5.0 (Macintosh; Intel Mac OS X 10_15_7) AppleWebKit/537.36 (KHTML, like Gecko) Chrome/99.0.4844.84 Safari/537.36","Macintosh","Chrome","99.0.4844.84","OS X","10_15_7","null","null","","","<p style=""font-size:64px;"">+</p>","O_4_6_O",""
"","","","","","html-keyboard-response","106","368787","0.0-2.0-5.0-0.0-1.3","27","1","2022-04-03 11:45:51","c79472ad15d8b617a4d57d5bf56a810f","124.122.192.20","Mozilla/5.0 (Macintosh; Intel Mac OS X 10_15_7) AppleWebKit/537.36 (KHTML, like Gecko) Chrome/99.0.4844.84 Safari/537.36","Macintosh","Chrome","99.0.4844.84","OS X","10_15_7","null","null","","","
                        <div class=orange>
                        <div class=""centered"">
                            <p style=""font-size: 24px""><b>55%</b></p>
                        </div>","O_4_6_O",""
"","","","","","html-keyboard-response","107","369195","0.0-2.0-5.0-0.0-0.4","27","1","2022-04-03 11:45:51","c79472ad15d8b617a4d57d5bf56a810f","124.122.192.20","Mozilla/5.0 (Macintosh; Intel Mac OS X 10_15_7) AppleWebKit/537.36 (KHTML, like Gecko) Chrome/99.0.4844.84 Safari/537.36","Macintosh","Chrome","99.0.4844.84","OS X","10_15_7","null","null","","","<p style=""font-size:64px;"">+</p>","O_4_6_O",""
"","","","","","html-keyboard-response","108","370454","0.0-2.0-5.0-0.0-1.4","27","1","2022-04-03 11:45:51","c79472ad15d8b617a4d57d5bf56a810f","124.122.192.20","Mozilla/5.0 (Macintosh; Intel Mac OS X 10_15_7) AppleWebKit/537.36 (KHTML, like Gecko) Chrome/99.0.4844.84 Safari/537.36","Macintosh","Chrome","99.0.4844.84","OS X","10_15_7","null","null","","","
                        <div class=pink>
                        <div class=""centered"">
                            <p style=""font-size: 24px""><b>53%</b></p>
                        </div>","O_4_6_O",""
"","","","","","html-keyboard-response","109","370860","0.0-2.0-5.0-0.0-0.5","27","1","2022-04-03 11:45:51","c79472ad15d8b617a4d57d5bf56a810f","124.122.192.20","Mozilla/5.0 (Macintosh; Intel Mac OS X 10_15_7) AppleWebKit/537.36 (KHTML, like Gecko) Chrome/99.0.4844.84 Safari/537.36","Macintosh","Chrome","99.0.4844.84","OS X","10_15_7","null","null","","","<p style=""font-size:64px;"">+</p>","O_4_6_O",""
"","","","","","html-keyboard-response","110","372118","0.0-2.0-5.0-0.0-1.5","27","1","2022-04-03 11:45:51","c79472ad15d8b617a4d57d5bf56a810f","124.122.192.20","Mozilla/5.0 (Macintosh; Intel Mac OS X 10_15_7) AppleWebKit/537.36 (KHTML, like Gecko) Chrome/99.0.4844.84 Safari/537.36","Macintosh","Chrome","99.0.4844.84","OS X","10_15_7","null","null","","","
                        <div class=pink>
                        <div class=""centered"">
                            <p style=""font-size: 24px""><b>54%</b></p>
                        </div>","O_4_6_O",""
"","","","","","html-keyboard-response","111","372524","0.0-2.0-5.0-1.0-0.0","27","1","2022-04-03 11:45:51","c79472ad15d8b617a4d57d5bf56a810f","124.122.192.20","Mozilla/5.0 (Macintosh; Intel Mac OS X 10_15_7) AppleWebKit/537.36 (KHTML, like Gecko) Chrome/99.0.4844.84 Safari/537.36","Macintosh","Chrome","99.0.4844.84","OS X","10_15_7","null","null","","","<p style=""font-size:64px;"">+</p>","O_4_6_O",""
"","","","","","html-keyboard-response","112","373783","0.0-2.0-5.0-1.0-1.0","27","1","2022-04-03 11:45:51","c79472ad15d8b617a4d57d5bf56a810f","124.122.192.20","Mozilla/5.0 (Macintosh; Intel Mac OS X 10_15_7) AppleWebKit/537.36 (KHTML, like Gecko) Chrome/99.0.4844.84 Safari/537.36","Macintosh","Chrome","99.0.4844.84","OS X","10_15_7","null","null","","","
                        <div class=""orange"">
                        <div class=""centered"">
                            <p style=""font-size: 24px""><b>50%</b></p>
                        </div>","O_4_6_O",""
"","","","","","html-slider-response","113","378333","0.0-2.0-5.0-2.0","27","1","2022-04-03 11:45:51","c79472ad15d8b617a4d57d5bf56a810f","124.122.192.20","Mozilla/5.0 (Macintosh; Intel Mac OS X 10_15_7) AppleWebKit/537.36 (KHTML, like Gecko) Chrome/99.0.4844.84 Safari/537.36","Macintosh","Chrome","99.0.4844.84","OS X","10_15_7","4546.199999988079","38","","","<div style=""width: 500px; height: 100px;""><p>Place your bid for more information.</p></div>","infoBid","35"
"","","","","","html-keyboard-response","114","378738","0.0-2.0-5.0-3.0-0.0","27","1","2022-04-03 11:45:51","c79472ad15d8b617a4d57d5bf56a810f","124.122.192.20","Mozilla/5.0 (Macintosh; Intel Mac OS X 10_15_7) AppleWebKit/537.36 (KHTML, like Gecko) Chrome/99.0.4844.84 Safari/537.36","Macintosh","Chrome","99.0.4844.84","OS X","10_15_7","null","null","","","<p style=""font-size:64px;"">+</p>","O_4_6_O",""
"","","","","","html-keyboard-response","115","379996","0.0-2.0-5.0-3.0-1.0","27","1","2022-04-03 11:45:51","c79472ad15d8b617a4d57d5bf56a810f","124.122.192.20","Mozilla/5.0 (Macintosh; Intel Mac OS X 10_15_7) AppleWebKit/537.36 (KHTML, like Gecko) Chrome/99.0.4844.84 Safari/537.36","Macintosh","Chrome","99.0.4844.84","OS X","10_15_7","null","null","","","<div class=pink>
                <div class=""centered"">
                    <p style=""font-size: 24px""><b>51%</b></p>
                </div>","O_4_6_O",""
"","","","","","html-keyboard-response","116","383964","0.0-2.0-5.0-4.0-0.0","27","1","2022-04-03 11:45:51","c79472ad15d8b617a4d57d5bf56a810f","124.122.192.20","Mozilla/5.0 (Macintosh; Intel Mac OS X 10_15_7) AppleWebKit/537.36 (KHTML, like Gecko) Chrome/99.0.4844.84 Safari/537.36","Macintosh","Chrome","99.0.4844.84","OS X","10_15_7","3963.8999999910593","j","","","
                      <div class=""row"">

                          <div class=""column"">
                              <div class=""orange""></div>
                              <div class=""leftChoiceText"">
                                  <p style=""font-size: 32px""><b>F</b></p>
                              </div>
                          </div>

                          <div class=""column"">
                              <div class=""pink""></div>
                              <div class=""rightChoiceText"">
                                  <p style=""font-size: 32px""><b>J</b></p>
                              </div>
                          </div>

                      </div>

                      <div class=""centeredTop"">
                          Which colour do you<br>
                          predict will win?
                      </div>","O_4_6_O",""
"","","","","","html-keyboard-response","117","385468","0.0-2.0-5.0-4.0-1.0","27","1","2022-04-03 11:45:51","c79472ad15d8b617a4d57d5bf56a810f","124.122.192.20","Mozilla/5.0 (Macintosh; Intel Mac OS X 10_15_7) AppleWebKit/537.36 (KHTML, like Gecko) Chrome/99.0.4844.84 Safari/537.36","Macintosh","Chrome","99.0.4844.84","OS X","10_15_7","null","null","","","<p style=""font-size:64px;"">+</p>","O_4_6_O",""
"","","","","","html-keyboard-response","118","385873","0.0-2.0-6.0-0.0-0.0","27","1","2022-04-03 11:45:51","c79472ad15d8b617a4d57d5bf56a810f","124.122.192.20","Mozilla/5.0 (Macintosh; Intel Mac OS X 10_15_7) AppleWebKit/537.36 (KHTML, like Gecko) Chrome/99.0.4844.84 Safari/537.36","Macintosh","Chrome","99.0.4844.84","OS X","10_15_7","null","null","","","<p style=""font-size:64px;"">+</p>","P_6_2_P",""
"","","","","","html-keyboard-response","119","387130","0.0-2.0-6.0-0.0-1.0","27","1","2022-04-03 11:45:51","c79472ad15d8b617a4d57d5bf56a810f","124.122.192.20","Mozilla/5.0 (Macintosh; Intel Mac OS X 10_15_7) AppleWebKit/537.36 (KHTML, like Gecko) Chrome/99.0.4844.84 Safari/537.36","Macintosh","Chrome","99.0.4844.84","OS X","10_15_7","null","null","","","
                        <div class=orange>
                        <div class=""centered"">
                            <p style=""font-size: 24px""><b>51%</b></p>
                        </div>","P_6_2_P",""
"","","","","","html-keyboard-response","120","387537","0.0-2.0-6.0-0.0-0.1","27","1","2022-04-03 11:45:51","c79472ad15d8b617a4d57d5bf56a810f","124.122.192.20","Mozilla/5.0 (Macintosh; Intel Mac OS X 10_15_7) AppleWebKit/537.36 (KHTML, like Gecko) Chrome/99.0.4844.84 Safari/537.36","Macintosh","Chrome","99.0.4844.84","OS X","10_15_7","null","null","","","<p style=""font-size:64px;"">+</p>","P_6_2_P",""
"","","","","","html-keyboard-response","121","388794","0.0-2.0-6.0-0.0-1.1","27","1","2022-04-03 11:45:51","c79472ad15d8b617a4d57d5bf56a810f","124.122.192.20","Mozilla/5.0 (Macintosh; Intel Mac OS X 10_15_7) AppleWebKit/537.36 (KHTML, like Gecko) Chrome/99.0.4844.84 Safari/537.36","Macintosh","Chrome","99.0.4844.84","OS X","10_15_7","null","null","","","
                        <div class=orange>
                        <div class=""centered"">
                            <p style=""font-size: 24px""><b>51%</b></p>
                        </div>","P_6_2_P",""
"","","","","","html-keyboard-response","122","389199","0.0-2.0-6.0-0.0-0.2","27","1","2022-04-03 11:45:51","c79472ad15d8b617a4d57d5bf56a810f","124.122.192.20","Mozilla/5.0 (Macintosh; Intel Mac OS X 10_15_7) AppleWebKit/537.36 (KHTML, like Gecko) Chrome/99.0.4844.84 Safari/537.36","Macintosh","Chrome","99.0.4844.84","OS X","10_15_7","null","null","","","<p style=""font-size:64px;"">+</p>","P_6_2_P",""
"","","","","","html-keyboard-response","123","390454","0.0-2.0-6.0-0.0-1.2","27","1","2022-04-03 11:45:51","c79472ad15d8b617a4d57d5bf56a810f","124.122.192.20","Mozilla/5.0 (Macintosh; Intel Mac OS X 10_15_7) AppleWebKit/537.36 (KHTML, like Gecko) Chrome/99.0.4844.84 Safari/537.36","Macintosh","Chrome","99.0.4844.84","OS X","10_15_7","null","null","","","
                        <div class=orange>
                        <div class=""centered"">
                            <p style=""font-size: 24px""><b>53%</b></p>
                        </div>","P_6_2_P",""
"","","","","","html-keyboard-response","124","390858","0.0-2.0-6.0-0.0-0.3","27","1","2022-04-03 11:45:51","c79472ad15d8b617a4d57d5bf56a810f","124.122.192.20","Mozilla/5.0 (Macintosh; Intel Mac OS X 10_15_7) AppleWebKit/537.36 (KHTML, like Gecko) Chrome/99.0.4844.84 Safari/537.36","Macintosh","Chrome","99.0.4844.84","OS X","10_15_7","null","null","","","<p style=""font-size:64px;"">+</p>","P_6_2_P",""
"","","","","","html-keyboard-response","125","392112","0.0-2.0-6.0-0.0-1.3","27","1","2022-04-03 11:45:51","c79472ad15d8b617a4d57d5bf56a810f","124.122.192.20","Mozilla/5.0 (Macintosh; Intel Mac OS X 10_15_7) AppleWebKit/537.36 (KHTML, like Gecko) Chrome/99.0.4844.84 Safari/537.36","Macintosh","Chrome","99.0.4844.84","OS X","10_15_7","null","null","","","
                        <div class=pink>
                        <div class=""centered"">
                            <p style=""font-size: 24px""><b>54%</b></p>
                        </div>","P_6_2_P",""
"","","","","","html-keyboard-response","126","392519","0.0-2.0-6.0-0.0-0.4","27","1","2022-04-03 11:45:51","c79472ad15d8b617a4d57d5bf56a810f","124.122.192.20","Mozilla/5.0 (Macintosh; Intel Mac OS X 10_15_7) AppleWebKit/537.36 (KHTML, like Gecko) Chrome/99.0.4844.84 Safari/537.36","Macintosh","Chrome","99.0.4844.84","OS X","10_15_7","null","null","","","<p style=""font-size:64px;"">+</p>","P_6_2_P",""
"","","","","","html-keyboard-response","127","393777","0.0-2.0-6.0-0.0-1.4","27","1","2022-04-03 11:45:51","c79472ad15d8b617a4d57d5bf56a810f","124.122.192.20","Mozilla/5.0 (Macintosh; Intel Mac OS X 10_15_7) AppleWebKit/537.36 (KHTML, like Gecko) Chrome/99.0.4844.84 Safari/537.36","Macintosh","Chrome","99.0.4844.84","OS X","10_15_7","null","null","","","
                        <div class=pink>
                        <div class=""centered"">
                            <p style=""font-size: 24px""><b>53%</b></p>
                        </div>","P_6_2_P",""
"","","","","","html-keyboard-response","128","394182","0.0-2.0-6.0-0.0-0.5","27","1","2022-04-03 11:45:51","c79472ad15d8b617a4d57d5bf56a810f","124.122.192.20","Mozilla/5.0 (Macintosh; Intel Mac OS X 10_15_7) AppleWebKit/537.36 (KHTML, like Gecko) Chrome/99.0.4844.84 Safari/537.36","Macintosh","Chrome","99.0.4844.84","OS X","10_15_7","null","null","","","<p style=""font-size:64px;"">+</p>","P_6_2_P",""
"","","","","","html-keyboard-response","129","395441","0.0-2.0-6.0-0.0-1.5","27","1","2022-04-03 11:45:51","c79472ad15d8b617a4d57d5bf56a810f","124.122.192.20","Mozilla/5.0 (Macintosh; Intel Mac OS X 10_15_7) AppleWebKit/537.36 (KHTML, like Gecko) Chrome/99.0.4844.84 Safari/537.36","Macintosh","Chrome","99.0.4844.84","OS X","10_15_7","null","null","","","
                        <div class=pink>
                        <div class=""centered"">
                            <p style=""font-size: 24px""><b>54%</b></p>
                        </div>","P_6_2_P",""
"","","","","","html-keyboard-response","130","395852","0.0-2.0-6.0-1.0-0.0","27","1","2022-04-03 11:45:51","c79472ad15d8b617a4d57d5bf56a810f","124.122.192.20","Mozilla/5.0 (Macintosh; Intel Mac OS X 10_15_7) AppleWebKit/537.36 (KHTML, like Gecko) Chrome/99.0.4844.84 Safari/537.36","Macintosh","Chrome","99.0.4844.84","OS X","10_15_7","null","null","","","<p style=""font-size:64px;"">+</p>","P_6_2_P",""
"","","","","","html-keyboard-response","131","397110","0.0-2.0-6.0-1.0-1.0","27","1","2022-04-03 11:45:51","c79472ad15d8b617a4d57d5bf56a810f","124.122.192.20","Mozilla/5.0 (Macintosh; Intel Mac OS X 10_15_7) AppleWebKit/537.36 (KHTML, like Gecko) Chrome/99.0.4844.84 Safari/537.36","Macintosh","Chrome","99.0.4844.84","OS X","10_15_7","null","null","","","
                        <div class=""pink"">
                        <div class=""centered"">
                            <p style=""font-size: 24px""><b>50%</b></p>
                        </div>","P_6_2_P",""
"","","","","","html-slider-response","132","399756","0.0-2.0-6.0-2.0","27","1","2022-04-03 11:45:51","c79472ad15d8b617a4d57d5bf56a810f","124.122.192.20","Mozilla/5.0 (Macintosh; Intel Mac OS X 10_15_7) AppleWebKit/537.36 (KHTML, like Gecko) Chrome/99.0.4844.84 Safari/537.36","Macintosh","Chrome","99.0.4844.84","OS X","10_15_7","2640.7999999970198","8","","","<div style=""width: 500px; height: 100px;""><p>Place your bid for more information.</p></div>","infoBid","32"
"","","","","","html-keyboard-response","133","400159","0.0-2.0-6.0-3.0-0.0","27","1","2022-04-03 11:45:51","c79472ad15d8b617a4d57d5bf56a810f","124.122.192.20","Mozilla/5.0 (Macintosh; Intel Mac OS X 10_15_7) AppleWebKit/537.36 (KHTML, like Gecko) Chrome/99.0.4844.84 Safari/537.36","Macintosh","Chrome","99.0.4844.84","OS X","10_15_7","null","null","","","<p style=""font-size:64px;"">+</p>","P_6_2_P",""
"","","","","","html-keyboard-response","134","401419","0.0-2.0-6.0-3.0-1.0","27","1","2022-04-03 11:45:51","c79472ad15d8b617a4d57d5bf56a810f","124.122.192.20","Mozilla/5.0 (Macintosh; Intel Mac OS X 10_15_7) AppleWebKit/537.36 (KHTML, like Gecko) Chrome/99.0.4844.84 Safari/537.36","Macintosh","Chrome","99.0.4844.84","OS X","10_15_7","null","null","","","<div class=orange>
                <div class=""centered"">
                    <p style=""font-size: 24px""><b>53%</b></p>
                </div>","P_6_2_P",""
"","","","","","html-keyboard-response","135","415352","0.0-2.0-6.0-4.0-0.0","27","1","2022-04-03 11:45:51","c79472ad15d8b617a4d57d5bf56a810f","124.122.192.20","Mozilla/5.0 (Macintosh; Intel Mac OS X 10_15_7) AppleWebKit/537.36 (KHTML, like Gecko) Chrome/99.0.4844.84 Safari/537.36","Macintosh","Chrome","99.0.4844.84","OS X","10_15_7","13930","j","","","
                      <div class=""row"">

                          <div class=""column"">
                              <div class=""orange""></div>
                              <div class=""leftChoiceText"">
                                  <p style=""font-size: 32px""><b>F</b></p>
                              </div>
                          </div>

                          <div class=""column"">
                              <div class=""pink""></div>
                              <div class=""rightChoiceText"">
                                  <p style=""font-size: 32px""><b>J</b></p>
                              </div>
                          </div>

                      </div>

                      <div class=""centeredTop"">
                          Which colour do you<br>
                          predict will win?
                      </div>","P_6_2_P",""
"","","","","","html-keyboard-response","136","416859","0.0-2.0-6.0-4.0-1.0","27","1","2022-04-03 11:45:51","c79472ad15d8b617a4d57d5bf56a810f","124.122.192.20","Mozilla/5.0 (Macintosh; Intel Mac OS X 10_15_7) AppleWebKit/537.36 (KHTML, like Gecko) Chrome/99.0.4844.84 Safari/537.36","Macintosh","Chrome","99.0.4844.84","OS X","10_15_7","null","null","","","<p style=""font-size:64px;"">+</p>","P_6_2_P",""
"","","","","","html-keyboard-response","137","417264","0.0-2.0-7.0-0.0-0.0","27","1","2022-04-03 11:45:51","c79472ad15d8b617a4d57d5bf56a810f","124.122.192.20","Mozilla/5.0 (Macintosh; Intel Mac OS X 10_15_7) AppleWebKit/537.36 (KHTML, like Gecko) Chrome/99.0.4844.84 Safari/537.36","Macintosh","Chrome","99.0.4844.84","OS X","10_15_7","null","null","","","<p style=""font-size:64px;"">+</p>","P_6_2_O",""
"","","","","","html-keyboard-response","138","418523","0.0-2.0-7.0-0.0-1.0","27","1","2022-04-03 11:45:51","c79472ad15d8b617a4d57d5bf56a810f","124.122.192.20","Mozilla/5.0 (Macintosh; Intel Mac OS X 10_15_7) AppleWebKit/537.36 (KHTML, like Gecko) Chrome/99.0.4844.84 Safari/537.36","Macintosh","Chrome","99.0.4844.84","OS X","10_15_7","null","null","","","
                        <div class=pink>
                        <div class=""centered"">
                            <p style=""font-size: 24px""><b>54%</b></p>
                        </div>","P_6_2_O",""
"","","","","","html-keyboard-response","139","418928","0.0-2.0-7.0-0.0-0.1","27","1","2022-04-03 11:45:51","c79472ad15d8b617a4d57d5bf56a810f","124.122.192.20","Mozilla/5.0 (Macintosh; Intel Mac OS X 10_15_7) AppleWebKit/537.36 (KHTML, like Gecko) Chrome/99.0.4844.84 Safari/537.36","Macintosh","Chrome","99.0.4844.84","OS X","10_15_7","null","null","","","<p style=""font-size:64px;"">+</p>","P_6_2_O",""
"","","","","","html-keyboard-response","140","420187","0.0-2.0-7.0-0.0-1.1","27","1","2022-04-03 11:45:51","c79472ad15d8b617a4d57d5bf56a810f","124.122.192.20","Mozilla/5.0 (Macintosh; Intel Mac OS X 10_15_7) AppleWebKit/537.36 (KHTML, like Gecko) Chrome/99.0.4844.84 Safari/537.36","Macintosh","Chrome","99.0.4844.84","OS X","10_15_7","null","null","","","
                        <div class=pink>
                        <div class=""centered"">
                            <p style=""font-size: 24px""><b>53%</b></p>
                        </div>","P_6_2_O",""
"","","","","","html-keyboard-response","141","420593","0.0-2.0-7.0-0.0-0.2","27","1","2022-04-03 11:45:51","c79472ad15d8b617a4d57d5bf56a810f","124.122.192.20","Mozilla/5.0 (Macintosh; Intel Mac OS X 10_15_7) AppleWebKit/537.36 (KHTML, like Gecko) Chrome/99.0.4844.84 Safari/537.36","Macintosh","Chrome","99.0.4844.84","OS X","10_15_7","null","null","","","<p style=""font-size:64px;"">+</p>","P_6_2_O",""
"","","","","","html-keyboard-response","142","421851","0.0-2.0-7.0-0.0-1.2","27","1","2022-04-03 11:45:51","c79472ad15d8b617a4d57d5bf56a810f","124.122.192.20","Mozilla/5.0 (Macintosh; Intel Mac OS X 10_15_7) AppleWebKit/537.36 (KHTML, like Gecko) Chrome/99.0.4844.84 Safari/537.36","Macintosh","Chrome","99.0.4844.84","OS X","10_15_7","null","null","","","
                        <div class=orange>
                        <div class=""centered"">
                            <p style=""font-size: 24px""><b>51%</b></p>
                        </div>","P_6_2_O",""
"","","","","","html-keyboard-response","143","422256","0.0-2.0-7.0-0.0-0.3","27","1","2022-04-03 11:45:51","c79472ad15d8b617a4d57d5bf56a810f","124.122.192.20","Mozilla/5.0 (Macintosh; Intel Mac OS X 10_15_7) AppleWebKit/537.36 (KHTML, like Gecko) Chrome/99.0.4844.84 Safari/537.36","Macintosh","Chrome","99.0.4844.84","OS X","10_15_7","null","null","","","<p style=""font-size:64px;"">+</p>","P_6_2_O",""
"","","","","","html-keyboard-response","144","423513","0.0-2.0-7.0-0.0-1.3","27","1","2022-04-03 11:45:51","c79472ad15d8b617a4d57d5bf56a810f","124.122.192.20","Mozilla/5.0 (Macintosh; Intel Mac OS X 10_15_7) AppleWebKit/537.36 (KHTML, like Gecko) Chrome/99.0.4844.84 Safari/537.36","Macintosh","Chrome","99.0.4844.84","OS X","10_15_7","null","null","","","
                        <div class=orange>
                        <div class=""centered"">
                            <p style=""font-size: 24px""><b>51%</b></p>
                        </div>","P_6_2_O",""
"","","","","","html-keyboard-response","145","423920","0.0-2.0-7.0-0.0-0.4","27","1","2022-04-03 11:45:51","c79472ad15d8b617a4d57d5bf56a810f","124.122.192.20","Mozilla/5.0 (Macintosh; Intel Mac OS X 10_15_7) AppleWebKit/537.36 (KHTML, like Gecko) Chrome/99.0.4844.84 Safari/537.36","Macintosh","Chrome","99.0.4844.84","OS X","10_15_7","null","null","","","<p style=""font-size:64px;"">+</p>","P_6_2_O",""
"","","","","","html-keyboard-response","146","425179","0.0-2.0-7.0-0.0-1.4","27","1","2022-04-03 11:45:51","c79472ad15d8b617a4d57d5bf56a810f","124.122.192.20","Mozilla/5.0 (Macintosh; Intel Mac OS X 10_15_7) AppleWebKit/537.36 (KHTML, like Gecko) Chrome/99.0.4844.84 Safari/537.36","Macintosh","Chrome","99.0.4844.84","OS X","10_15_7","null","null","","","
                        <div class=orange>
                        <div class=""centered"">
                            <p style=""font-size: 24px""><b>53%</b></p>
                        </div>","P_6_2_O",""
"","","","","","html-keyboard-response","147","425584","0.0-2.0-7.0-0.0-0.5","27","1","2022-04-03 11:45:51","c79472ad15d8b617a4d57d5bf56a810f","124.122.192.20","Mozilla/5.0 (Macintosh; Intel Mac OS X 10_15_7) AppleWebKit/537.36 (KHTML, like Gecko) Chrome/99.0.4844.84 Safari/537.36","Macintosh","Chrome","99.0.4844.84","OS X","10_15_7","null","null","","","<p style=""font-size:64px;"">+</p>","P_6_2_O",""
"","","","","","html-keyboard-response","148","426838","0.0-2.0-7.0-0.0-1.5","27","1","2022-04-03 11:45:51","c79472ad15d8b617a4d57d5bf56a810f","124.122.192.20","Mozilla/5.0 (Macintosh; Intel Mac OS X 10_15_7) AppleWebKit/537.36 (KHTML, like Gecko) Chrome/99.0.4844.84 Safari/537.36","Macintosh","Chrome","99.0.4844.84","OS X","10_15_7","null","null","","","
                        <div class=pink>
                        <div class=""centered"">
                            <p style=""font-size: 24px""><b>54%</b></p>
                        </div>","P_6_2_O",""
"","","","","","html-keyboard-response","149","427243","0.0-2.0-7.0-1.0-0.0","27","1","2022-04-03 11:45:51","c79472ad15d8b617a4d57d5bf56a810f","124.122.192.20","Mozilla/5.0 (Macintosh; Intel Mac OS X 10_15_7) AppleWebKit/537.36 (KHTML, like Gecko) Chrome/99.0.4844.84 Safari/537.36","Macintosh","Chrome","99.0.4844.84","OS X","10_15_7","null","null","","","<p style=""font-size:64px;"">+</p>","P_6_2_O",""
"","","","","","html-keyboard-response","150","428501","0.0-2.0-7.0-1.0-1.0","27","1","2022-04-03 11:45:51","c79472ad15d8b617a4d57d5bf56a810f","124.122.192.20","Mozilla/5.0 (Macintosh; Intel Mac OS X 10_15_7) AppleWebKit/537.36 (KHTML, like Gecko) Chrome/99.0.4844.84 Safari/537.36","Macintosh","Chrome","99.0.4844.84","OS X","10_15_7","null","null","","","
                        <div class=""orange"">
                        <div class=""centered"">
                            <p style=""font-size: 24px""><b>50%</b></p>
                        </div>","P_6_2_O",""
"","","","","","html-slider-response","151","431648","0.0-2.0-7.0-2.0","27","1","2022-04-03 11:45:51","c79472ad15d8b617a4d57d5bf56a810f","124.122.192.20","Mozilla/5.0 (Macintosh; Intel Mac OS X 10_15_7) AppleWebKit/537.36 (KHTML, like Gecko) Chrome/99.0.4844.84 Safari/537.36","Macintosh","Chrome","99.0.4844.84","OS X","10_15_7","3143.2999999970198","4","","","<div style=""width: 500px; height: 100px;""><p>Place your bid for more information.</p></div>","infoBid","30"
"","","","","","html-keyboard-response","152","432051","0.0-2.0-7.0-3.0-0.0","27","1","2022-04-03 11:45:51","c79472ad15d8b617a4d57d5bf56a810f","124.122.192.20","Mozilla/5.0 (Macintosh; Intel Mac OS X 10_15_7) AppleWebKit/537.36 (KHTML, like Gecko) Chrome/99.0.4844.84 Safari/537.36","Macintosh","Chrome","99.0.4844.84","OS X","10_15_7","null","null","","","<p style=""font-size:64px;"">+</p>","P_6_2_O",""
"","","","","","html-keyboard-response","153","433306","0.0-2.0-7.0-3.0-1.0","27","1","2022-04-03 11:45:51","c79472ad15d8b617a4d57d5bf56a810f","124.122.192.20","Mozilla/5.0 (Macintosh; Intel Mac OS X 10_15_7) AppleWebKit/537.36 (KHTML, like Gecko) Chrome/99.0.4844.84 Safari/537.36","Macintosh","Chrome","99.0.4844.84","OS X","10_15_7","null","null","","","<div class=""grey"">
                <div class=""centered"">
                    <p style=""font-size: 24px""><b>???</b></p>
                </div>","P_6_2_O",""
"","","","","","html-keyboard-response","154","435222","0.0-2.0-7.0-4.0-0.0","27","1","2022-04-03 11:45:51","c79472ad15d8b617a4d57d5bf56a810f","124.122.192.20","Mozilla/5.0 (Macintosh; Intel Mac OS X 10_15_7) AppleWebKit/537.36 (KHTML, like Gecko) Chrome/99.0.4844.84 Safari/537.36","Macintosh","Chrome","99.0.4844.84","OS X","10_15_7","1910","j","","","
                      <div class=""row"">

                          <div class=""column"">
                              <div class=""orange""></div>
                              <div class=""leftChoiceText"">
                                  <p style=""font-size: 32px""><b>F</b></p>
                              </div>
                          </div>

                          <div class=""column"">
                              <div class=""pink""></div>
                              <div class=""rightChoiceText"">
                                  <p style=""font-size: 32px""><b>J</b></p>
                              </div>
                          </div>

                      </div>

                      <div class=""centeredTop"">
                          Which colour do you<br>
                          predict will win?
                      </div>","P_6_2_O",""
"","","","","","html-keyboard-response","155","436727","0.0-2.0-7.0-4.0-1.0","27","1","2022-04-03 11:45:51","c79472ad15d8b617a4d57d5bf56a810f","124.122.192.20","Mozilla/5.0 (Macintosh; Intel Mac OS X 10_15_7) AppleWebKit/537.36 (KHTML, like Gecko) Chrome/99.0.4844.84 Safari/537.36","Macintosh","Chrome","99.0.4844.84","OS X","10_15_7","null","null","","","<p style=""font-size:64px;"">+</p>","P_6_2_O",""
"","","","","","html-keyboard-response","156","441889","0.0-2.0-8.0","27","1","2022-04-03 11:45:51","c79472ad15d8b617a4d57d5bf56a810f","124.122.192.20","Mozilla/5.0 (Macintosh; Intel Mac OS X 10_15_7) AppleWebKit/537.36 (KHTML, like Gecko) Chrome/99.0.4844.84 Safari/537.36","Macintosh","Chrome","99.0.4844.84","OS X","10_15_7","5160.5999999940395"," ","","","This is the end of the practice trials.<br><br>
        Press spacebar to begin the experiment.","",""
"","","","","","html-keyboard-response","157","442299","0.0-2.0-9.0-0.0-0.0","27","1","2022-04-03 11:45:51","c79472ad15d8b617a4d57d5bf56a810f","124.122.192.20","Mozilla/5.0 (Macintosh; Intel Mac OS X 10_15_7) AppleWebKit/537.36 (KHTML, like Gecko) Chrome/99.0.4844.84 Safari/537.36","Macintosh","Chrome","99.0.4844.84","OS X","10_15_7","null","null","","","<p style=""font-size:64px;"">+</p>","P_2_1_P",""
"","","","","","html-keyboard-response","158","443558","0.0-2.0-9.0-0.0-1.0","27","1","2022-04-03 11:45:51","c79472ad15d8b617a4d57d5bf56a810f","124.122.192.20","Mozilla/5.0 (Macintosh; Intel Mac OS X 10_15_7) AppleWebKit/537.36 (KHTML, like Gecko) Chrome/99.0.4844.84 Safari/537.36","Macintosh","Chrome","99.0.4844.84","OS X","10_15_7","null","null","","","
                        <div class=pink>
                        <div class=""centered"">
                            <p style=""font-size: 24px""><b>54%</b></p>
                        </div>","P_2_1_P",""
"","","","","","html-keyboard-response","159","443963","0.0-2.0-9.0-0.0-0.1","27","1","2022-04-03 11:45:51","c79472ad15d8b617a4d57d5bf56a810f","124.122.192.20","Mozilla/5.0 (Macintosh; Intel Mac OS X 10_15_7) AppleWebKit/537.36 (KHTML, like Gecko) Chrome/99.0.4844.84 Safari/537.36","Macintosh","Chrome","99.0.4844.84","OS X","10_15_7","null","null","","","<p style=""font-size:64px;"">+</p>","P_2_1_P",""
"","","","","","html-keyboard-response","160","445220","0.0-2.0-9.0-0.0-1.1","27","1","2022-04-03 11:45:51","c79472ad15d8b617a4d57d5bf56a810f","124.122.192.20","Mozilla/5.0 (Macintosh; Intel Mac OS X 10_15_7) AppleWebKit/537.36 (KHTML, like Gecko) Chrome/99.0.4844.84 Safari/537.36","Macintosh","Chrome","99.0.4844.84","OS X","10_15_7","null","null","","","
                        <div class=orange>
                        <div class=""centered"">
                            <p style=""font-size: 24px""><b>52%</b></p>
                        </div>","P_2_1_P",""
"","","","","","html-keyboard-response","161","445627","0.0-2.0-9.0-0.0-0.2","27","1","2022-04-03 11:45:51","c79472ad15d8b617a4d57d5bf56a810f","124.122.192.20","Mozilla/5.0 (Macintosh; Intel Mac OS X 10_15_7) AppleWebKit/537.36 (KHTML, like Gecko) Chrome/99.0.4844.84 Safari/537.36","Macintosh","Chrome","99.0.4844.84","OS X","10_15_7","null","null","","","<p style=""font-size:64px;"">+</p>","P_2_1_P",""
"","","","","","html-keyboard-response","162","446886","0.0-2.0-9.0-0.0-1.2","27","1","2022-04-03 11:45:51","c79472ad15d8b617a4d57d5bf56a810f","124.122.192.20","Mozilla/5.0 (Macintosh; Intel Mac OS X 10_15_7) AppleWebKit/537.36 (KHTML, like Gecko) Chrome/99.0.4844.84 Safari/537.36","Macintosh","Chrome","99.0.4844.84","OS X","10_15_7","null","null","","","
                        <div class=pink>
                        <div class=""centered"">
                            <p style=""font-size: 24px""><b>52%</b></p>
                        </div>","P_2_1_P",""
"","","","","","html-keyboard-response","163","447291","0.0-2.0-9.0-0.0-0.3","27","1","2022-04-03 11:45:51","c79472ad15d8b617a4d57d5bf56a810f","124.122.192.20","Mozilla/5.0 (Macintosh; Intel Mac OS X 10_15_7) AppleWebKit/537.36 (KHTML, like Gecko) Chrome/99.0.4844.84 Safari/537.36","Macintosh","Chrome","99.0.4844.84","OS X","10_15_7","null","null","","","<p style=""font-size:64px;"">+</p>","P_2_1_P",""
"","","","","","html-keyboard-response","164","448545","0.0-2.0-9.0-0.0-1.3","27","1","2022-04-03 11:45:51","c79472ad15d8b617a4d57d5bf56a810f","124.122.192.20","Mozilla/5.0 (Macintosh; Intel Mac OS X 10_15_7) AppleWebKit/537.36 (KHTML, like Gecko) Chrome/99.0.4844.84 Safari/537.36","Macintosh","Chrome","99.0.4844.84","OS X","10_15_7","null","null","","","
                        <div class=orange>
                        <div class=""centered"">
                            <p style=""font-size: 24px""><b>51%</b></p>
                        </div>","P_2_1_P",""
"","","","","","html-keyboard-response","165","448953","0.0-2.0-9.0-0.0-0.4","27","1","2022-04-03 11:45:51","c79472ad15d8b617a4d57d5bf56a810f","124.122.192.20","Mozilla/5.0 (Macintosh; Intel Mac OS X 10_15_7) AppleWebKit/537.36 (KHTML, like Gecko) Chrome/99.0.4844.84 Safari/537.36","Macintosh","Chrome","99.0.4844.84","OS X","10_15_7","null","null","","","<p style=""font-size:64px;"">+</p>","P_2_1_P",""
"","","","","","html-keyboard-response","166","450209","0.0-2.0-9.0-0.0-1.4","27","1","2022-04-03 11:45:51","c79472ad15d8b617a4d57d5bf56a810f","124.122.192.20","Mozilla/5.0 (Macintosh; Intel Mac OS X 10_15_7) AppleWebKit/537.36 (KHTML, like Gecko) Chrome/99.0.4844.84 Safari/537.36","Macintosh","Chrome","99.0.4844.84","OS X","10_15_7","null","null","","","
                        <div class=pink>
                        <div class=""centered"">
                            <p style=""font-size: 24px""><b>54%</b></p>
                        </div>","P_2_1_P",""
"","","","","","html-keyboard-response","167","450619","0.0-2.0-9.0-0.0-0.5","27","1","2022-04-03 11:45:51","c79472ad15d8b617a4d57d5bf56a810f","124.122.192.20","Mozilla/5.0 (Macintosh; Intel Mac OS X 10_15_7) AppleWebKit/537.36 (KHTML, like Gecko) Chrome/99.0.4844.84 Safari/537.36","Macintosh","Chrome","99.0.4844.84","OS X","10_15_7","null","null","","","<p style=""font-size:64px;"">+</p>","P_2_1_P",""
"","","","","","html-keyboard-response","168","451875","0.0-2.0-9.0-0.0-1.5","27","1","2022-04-03 11:45:51","c79472ad15d8b617a4d57d5bf56a810f","124.122.192.20","Mozilla/5.0 (Macintosh; Intel Mac OS X 10_15_7) AppleWebKit/537.36 (KHTML, like Gecko) Chrome/99.0.4844.84 Safari/537.36","Macintosh","Chrome","99.0.4844.84","OS X","10_15_7","null","null","","","
                        <div class=orange>
                        <div class=""centered"">
                            <p style=""font-size: 24px""><b>55%</b></p>
                        </div>","P_2_1_P",""
"","","","","","html-keyboard-response","169","452280","0.0-2.0-9.0-1.0-0.0","27","1","2022-04-03 11:45:51","c79472ad15d8b617a4d57d5bf56a810f","124.122.192.20","Mozilla/5.0 (Macintosh; Intel Mac OS X 10_15_7) AppleWebKit/537.36 (KHTML, like Gecko) Chrome/99.0.4844.84 Safari/537.36","Macintosh","Chrome","99.0.4844.84","OS X","10_15_7","null","null","","","<p style=""font-size:64px;"">+</p>","P_2_1_P",""
"","","","","","html-keyboard-response","170","453537","0.0-2.0-9.0-1.0-1.0","27","1","2022-04-03 11:45:51","c79472ad15d8b617a4d57d5bf56a810f","124.122.192.20","Mozilla/5.0 (Macintosh; Intel Mac OS X 10_15_7) AppleWebKit/537.36 (KHTML, like Gecko) Chrome/99.0.4844.84 Safari/537.36","Macintosh","Chrome","99.0.4844.84","OS X","10_15_7","null","null","","","
                        <div class=""pink"">
                        <div class=""centered"">
                            <p style=""font-size: 24px""><b>50%</b></p>
                        </div>","P_2_1_P",""
"","","","","","html-slider-response","171","455822","0.0-2.0-9.0-2.0","27","1","2022-04-03 11:45:51","c79472ad15d8b617a4d57d5bf56a810f","124.122.192.20","Mozilla/5.0 (Macintosh; Intel Mac OS X 10_15_7) AppleWebKit/537.36 (KHTML, like Gecko) Chrome/99.0.4844.84 Safari/537.36","Macintosh","Chrome","99.0.4844.84","OS X","10_15_7","2281.3999999910593","27","","","<div style=""width: 500px; height: 100px;""><p>Place your bid for more information.</p></div>","infoBid","19"
"","","","","","html-keyboard-response","172","456227","0.0-2.0-9.0-3.0-0.0","27","1","2022-04-03 11:45:51","c79472ad15d8b617a4d57d5bf56a810f","124.122.192.20","Mozilla/5.0 (Macintosh; Intel Mac OS X 10_15_7) AppleWebKit/537.36 (KHTML, like Gecko) Chrome/99.0.4844.84 Safari/537.36","Macintosh","Chrome","99.0.4844.84","OS X","10_15_7","null","null","","","<p style=""font-size:64px;"">+</p>","P_2_1_P",""
"","","","","","html-keyboard-response","173","457483","0.0-2.0-9.0-3.0-1.0","27","1","2022-04-03 11:45:51","c79472ad15d8b617a4d57d5bf56a810f","124.122.192.20","Mozilla/5.0 (Macintosh; Intel Mac OS X 10_15_7) AppleWebKit/537.36 (KHTML, like Gecko) Chrome/99.0.4844.84 Safari/537.36","Macintosh","Chrome","99.0.4844.84","OS X","10_15_7","null","null","","","<div class=""grey"">
                <div class=""centered"">
                    <p style=""font-size: 24px""><b>???</b></p>
                </div>","P_2_1_P",""
"","","","","","html-keyboard-response","174","460050","0.0-2.0-9.0-4.0-0.0","27","1","2022-04-03 11:45:51","c79472ad15d8b617a4d57d5bf56a810f","124.122.192.20","Mozilla/5.0 (Macintosh; Intel Mac OS X 10_15_7) AppleWebKit/537.36 (KHTML, like Gecko) Chrome/99.0.4844.84 Safari/537.36","Macintosh","Chrome","99.0.4844.84","OS X","10_15_7","2563.5","f","","","
                      <div class=""row"">

                          <div class=""column"">
                              <div class=""orange""></div>
                              <div class=""leftChoiceText"">
                                  <p style=""font-size: 32px""><b>F</b></p>
                              </div>
                          </div>

                          <div class=""column"">
                              <div class=""pink""></div>
                              <div class=""rightChoiceText"">
                                  <p style=""font-size: 32px""><b>J</b></p>
                              </div>
                          </div>

                      </div>

                      <div class=""centeredTop"">
                          Which colour do you<br>
                          predict will win?
                      </div>","P_2_1_P",""
"","","","","","html-keyboard-response","175","461558","0.0-2.0-9.0-4.0-1.0","27","1","2022-04-03 11:45:51","c79472ad15d8b617a4d57d5bf56a810f","124.122.192.20","Mozilla/5.0 (Macintosh; Intel Mac OS X 10_15_7) AppleWebKit/537.36 (KHTML, like Gecko) Chrome/99.0.4844.84 Safari/537.36","Macintosh","Chrome","99.0.4844.84","OS X","10_15_7","null","null","","","<p style=""font-size:64px;"">+</p>","P_2_1_P",""
"","","","","","html-keyboard-response","176","461963","0.0-2.0-10.0-0.0-0.0","27","1","2022-04-03 11:45:51","c79472ad15d8b617a4d57d5bf56a810f","124.122.192.20","Mozilla/5.0 (Macintosh; Intel Mac OS X 10_15_7) AppleWebKit/537.36 (KHTML, like Gecko) Chrome/99.0.4844.84 Safari/537.36","Macintosh","Chrome","99.0.4844.84","OS X","10_15_7","null","null","","","<p style=""font-size:64px;"">+</p>","P_4_6_P",""
"","","","","","html-keyboard-response","177","463222","0.0-2.0-10.0-0.0-1.0","27","1","2022-04-03 11:45:51","c79472ad15d8b617a4d57d5bf56a810f","124.122.192.20","Mozilla/5.0 (Macintosh; Intel Mac OS X 10_15_7) AppleWebKit/537.36 (KHTML, like Gecko) Chrome/99.0.4844.84 Safari/537.36","Macintosh","Chrome","99.0.4844.84","OS X","10_15_7","null","null","","","
                        <div class=orange>
                        <div class=""centered"">
                            <p style=""font-size: 24px""><b>52%</b></p>
                        </div>","P_4_6_P",""
"","","","","","html-keyboard-response","178","463627","0.0-2.0-10.0-0.0-0.1","27","1","2022-04-03 11:45:51","c79472ad15d8b617a4d57d5bf56a810f","124.122.192.20","Mozilla/5.0 (Macintosh; Intel Mac OS X 10_15_7) AppleWebKit/537.36 (KHTML, like Gecko) Chrome/99.0.4844.84 Safari/537.36","Macintosh","Chrome","99.0.4844.84","OS X","10_15_7","null","null","","","<p style=""font-size:64px;"">+</p>","P_4_6_P",""
"","","","","","html-keyboard-response","179","464886","0.0-2.0-10.0-0.0-1.1","27","1","2022-04-03 11:45:51","c79472ad15d8b617a4d57d5bf56a810f","124.122.192.20","Mozilla/5.0 (Macintosh; Intel Mac OS X 10_15_7) AppleWebKit/537.36 (KHTML, like Gecko) Chrome/99.0.4844.84 Safari/537.36","Macintosh","Chrome","99.0.4844.84","OS X","10_15_7","null","null","","","
                        <div class=orange>
                        <div class=""centered"">
                            <p style=""font-size: 24px""><b>54%</b></p>
                        </div>","P_4_6_P",""
"","","","","","html-keyboard-response","180","465293","0.0-2.0-10.0-0.0-0.2","27","1","2022-04-03 11:45:51","c79472ad15d8b617a4d57d5bf56a810f","124.122.192.20","Mozilla/5.0 (Macintosh; Intel Mac OS X 10_15_7) AppleWebKit/537.36 (KHTML, like Gecko) Chrome/99.0.4844.84 Safari/537.36","Macintosh","Chrome","99.0.4844.84","OS X","10_15_7","null","null","","","<p style=""font-size:64px;"">+</p>","P_4_6_P",""
"","","","","","html-keyboard-response","181","466550","0.0-2.0-10.0-0.0-1.2","27","1","2022-04-03 11:45:51","c79472ad15d8b617a4d57d5bf56a810f","124.122.192.20","Mozilla/5.0 (Macintosh; Intel Mac OS X 10_15_7) AppleWebKit/537.36 (KHTML, like Gecko) Chrome/99.0.4844.84 Safari/537.36","Macintosh","Chrome","99.0.4844.84","OS X","10_15_7","null","null","","","
                        <div class=pink>
                        <div class=""centered"">
                            <p style=""font-size: 24px""><b>54%</b></p>
                        </div>","P_4_6_P",""
"","","","","","html-keyboard-response","182","466955","0.0-2.0-10.0-0.0-0.3","27","1","2022-04-03 11:45:51","c79472ad15d8b617a4d57d5bf56a810f","124.122.192.20","Mozilla/5.0 (Macintosh; Intel Mac OS X 10_15_7) AppleWebKit/537.36 (KHTML, like Gecko) Chrome/99.0.4844.84 Safari/537.36","Macintosh","Chrome","99.0.4844.84","OS X","10_15_7","null","null","","","<p style=""font-size:64px;"">+</p>","P_4_6_P",""
"","","","","","html-keyboard-response","183","468209","0.0-2.0-10.0-0.0-1.3","27","1","2022-04-03 11:45:51","c79472ad15d8b617a4d57d5bf56a810f","124.122.192.20","Mozilla/5.0 (Macintosh; Intel Mac OS X 10_15_7) AppleWebKit/537.36 (KHTML, like Gecko) Chrome/99.0.4844.84 Safari/537.36","Macintosh","Chrome","99.0.4844.84","OS X","10_15_7","null","null","","","
                        <div class=orange>
                        <div class=""centered"">
                            <p style=""font-size: 24px""><b>53%</b></p>
                        </div>","P_4_6_P",""
"","","","","","html-keyboard-response","184","468614","0.0-2.0-10.0-0.0-0.4","27","1","2022-04-03 11:45:51","c79472ad15d8b617a4d57d5bf56a810f","124.122.192.20","Mozilla/5.0 (Macintosh; Intel Mac OS X 10_15_7) AppleWebKit/537.36 (KHTML, like Gecko) Chrome/99.0.4844.84 Safari/537.36","Macintosh","Chrome","99.0.4844.84","OS X","10_15_7","null","null","","","<p style=""font-size:64px;"">+</p>","P_4_6_P",""
"","","","","","html-keyboard-response","185","469875","0.0-2.0-10.0-0.0-1.4","27","1","2022-04-03 11:45:51","c79472ad15d8b617a4d57d5bf56a810f","124.122.192.20","Mozilla/5.0 (Macintosh; Intel Mac OS X 10_15_7) AppleWebKit/537.36 (KHTML, like Gecko) Chrome/99.0.4844.84 Safari/537.36","Macintosh","Chrome","99.0.4844.84","OS X","10_15_7","null","null","","","
                        <div class=pink>
                        <div class=""centered"">
                            <p style=""font-size: 24px""><b>55%</b></p>
                        </div>","P_4_6_P",""
"","","","","","html-keyboard-response","186","470283","0.0-2.0-10.0-0.0-0.5","27","1","2022-04-03 11:45:51","c79472ad15d8b617a4d57d5bf56a810f","124.122.192.20","Mozilla/5.0 (Macintosh; Intel Mac OS X 10_15_7) AppleWebKit/537.36 (KHTML, like Gecko) Chrome/99.0.4844.84 Safari/537.36","Macintosh","Chrome","99.0.4844.84","OS X","10_15_7","null","null","","","<p style=""font-size:64px;"">+</p>","P_4_6_P",""
"","","","","","html-keyboard-response","187","471542","0.0-2.0-10.0-0.0-1.5","27","1","2022-04-03 11:45:51","c79472ad15d8b617a4d57d5bf56a810f","124.122.192.20","Mozilla/5.0 (Macintosh; Intel Mac OS X 10_15_7) AppleWebKit/537.36 (KHTML, like Gecko) Chrome/99.0.4844.84 Safari/537.36","Macintosh","Chrome","99.0.4844.84","OS X","10_15_7","null","null","","","
                        <div class=pink>
                        <div class=""centered"">
                            <p style=""font-size: 24px""><b>54%</b></p>
                        </div>","P_4_6_P",""
"","","","","","html-keyboard-response","188","471949","0.0-2.0-10.0-1.0-0.0","27","1","2022-04-03 11:45:51","c79472ad15d8b617a4d57d5bf56a810f","124.122.192.20","Mozilla/5.0 (Macintosh; Intel Mac OS X 10_15_7) AppleWebKit/537.36 (KHTML, like Gecko) Chrome/99.0.4844.84 Safari/537.36","Macintosh","Chrome","99.0.4844.84","OS X","10_15_7","null","null","","","<p style=""font-size:64px;"">+</p>","P_4_6_P",""
"","","","","","html-keyboard-response","189","473206","0.0-2.0-10.0-1.0-1.0","27","1","2022-04-03 11:45:51","c79472ad15d8b617a4d57d5bf56a810f","124.122.192.20","Mozilla/5.0 (Macintosh; Intel Mac OS X 10_15_7) AppleWebKit/537.36 (KHTML, like Gecko) Chrome/99.0.4844.84 Safari/537.36","Macintosh","Chrome","99.0.4844.84","OS X","10_15_7","null","null","","","
                        <div class=""pink"">
                        <div class=""centered"">
                            <p style=""font-size: 24px""><b>50%</b></p>
                        </div>","P_4_6_P",""
"","","","","","html-slider-response","190","480765","0.0-2.0-10.0-2.0","27","1","2022-04-03 11:45:51","c79472ad15d8b617a4d57d5bf56a810f","124.122.192.20","Mozilla/5.0 (Macintosh; Intel Mac OS X 10_15_7) AppleWebKit/537.36 (KHTML, like Gecko) Chrome/99.0.4844.84 Safari/537.36","Macintosh","Chrome","99.0.4844.84","OS X","10_15_7","7555.300000011921","12","","","<div style=""width: 500px; height: 100px;""><p>Place your bid for more information.</p></div>","infoBid","31"
"","","","","","html-keyboard-response","191","481172","0.0-2.0-10.0-3.0-0.0","27","1","2022-04-03 11:45:51","c79472ad15d8b617a4d57d5bf56a810f","124.122.192.20","Mozilla/5.0 (Macintosh; Intel Mac OS X 10_15_7) AppleWebKit/537.36 (KHTML, like Gecko) Chrome/99.0.4844.84 Safari/537.36","Macintosh","Chrome","99.0.4844.84","OS X","10_15_7","null","null","","","<p style=""font-size:64px;"">+</p>","P_4_6_P",""
"","","","","","html-keyboard-response","192","482427","0.0-2.0-10.0-3.0-1.0","27","1","2022-04-03 11:45:51","c79472ad15d8b617a4d57d5bf56a810f","124.122.192.20","Mozilla/5.0 (Macintosh; Intel Mac OS X 10_15_7) AppleWebKit/537.36 (KHTML, like Gecko) Chrome/99.0.4844.84 Safari/537.36","Macintosh","Chrome","99.0.4844.84","OS X","10_15_7","null","null","","","<div class=""grey"">
                <div class=""centered"">
