"success","timeout","failed_images","failed_audio","failed_video","trial_type","trial_index","time_elapsed","internal_node_id","run_id","condition","recorded_at","source_code_version","ip","user_agent","device","browser","browser_version","platform","platform_version","rt","response","question_order","view_history","stimulus","trial_name","slider_start"
"true","false","[]","[]","[]","preload","0","179","0.0-0.0","21","1","2022-04-02 12:12:44","c79472ad15d8b617a4d57d5bf56a810f","110.23.86.169","Mozilla/5.0 (Macintosh; Intel Mac OS X 10_15_7) AppleWebKit/537.36 (KHTML, like Gecko) Chrome/98.0.4758.109 Safari/537.36","Macintosh","Chrome","98.0.4758.109","OS X","10_15_7","","","","","","",""
"","","","","","survey-multi-choice","1","4351","0.0-1.0-0.0","21","1","2022-04-02 12:12:44","c79472ad15d8b617a4d57d5bf56a810f","110.23.86.169","Mozilla/5.0 (Macintosh; Intel Mac OS X 10_15_7) AppleWebKit/537.36 (KHTML, like Gecko) Chrome/98.0.4758.109 Safari/537.36","Macintosh","Chrome","98.0.4758.109","OS X","10_15_7","4169.900000095367","{""Gender"":""Female""}","[0]","","","",""
"","","","","","survey-text","2","7302","0.0-1.0-1.0","21","1","2022-04-02 12:12:44","c79472ad15d8b617a4d57d5bf56a810f","110.23.86.169","Mozilla/5.0 (Macintosh; Intel Mac OS X 10_15_7) AppleWebKit/537.36 (KHTML, like Gecko) Chrome/98.0.4758.109 Safari/537.36","Macintosh","Chrome","98.0.4758.109","OS X","10_15_7","2947.5","{""Age"":""22""}","","","","",""
"","","","","","instructions","3","362202","0.0-1.0-2.0","21","1","2022-04-02 12:12:44","c79472ad15d8b617a4d57d5bf56a810f","110.23.86.169","Mozilla/5.0 (Macintosh; Intel Mac OS X 10_15_7) AppleWebKit/537.36 (KHTML, like Gecko) Chrome/98.0.4758.109 Safari/537.36","Macintosh","Chrome","98.0.4758.109","OS X","10_15_7","354898.10000014305","","","[{""page_index"":0,""viewing_time"":12718},{""page_index"":1,""viewing_time"":24035.900000095367},{""page_index"":2,""viewing_time"":101233},{""page_index"":3,""viewing_time"":31441.5},{""page_index"":4,""viewing_time"":33137.09999990463},{""page_index"":5,""viewing_time"":16574.700000047684},{""page_index"":6,""viewing_time"":17227.900000095367},{""page_index"":7,""viewing_time"":23545},{""page_index"":8,""viewing_time"":6233.599999904633},{""page_index"":9,""viewing_time"":43760.60000014305},{""page_index"":10,""viewing_time"":7003.799999952316},{""page_index"":11,""viewing_time"":21765.299999952316},{""page_index"":12,""viewing_time"":12368.5},{""page_index"":13,""viewing_time"":3852.4000000953674}]","","",""
"","","","","","html-keyboard-response","4","362605","0.0-2.0-0.0-0.0-0.0","21","1","2022-04-02 12:12:44","c79472ad15d8b617a4d57d5bf56a810f","110.23.86.169","Mozilla/5.0 (Macintosh; Intel Mac OS X 10_15_7) AppleWebKit/537.36 (KHTML, like Gecko) Chrome/98.0.4758.109 Safari/537.36","Macintosh","Chrome","98.0.4758.109","OS X","10_15_7","null","null","","","<p style=""font-size:64px;"">+</p>","Z_6_O",""
"","","","","","html-keyboard-response","5","363858","0.0-2.0-0.0-0.0-1.0","21","1","2022-04-02 12:12:44","c79472ad15d8b617a4d57d5bf56a810f","110.23.86.169","Mozilla/5.0 (Macintosh; Intel Mac OS X 10_15_7) AppleWebKit/537.36 (KHTML, like Gecko) Chrome/98.0.4758.109 Safari/537.36","Macintosh","Chrome","98.0.4758.109","OS X","10_15_7","null","null","","","
                        <div class=pink>
                        <div class=""centered"">
                            <p style=""font-size: 24px""><b>55%</b></p>
                        </div>","Z_6_O",""
"","","","","","html-keyboard-response","6","364259","0.0-2.0-0.0-0.0-0.1","21","1","2022-04-02 12:12:44","c79472ad15d8b617a4d57d5bf56a810f","110.23.86.169","Mozilla/5.0 (Macintosh; Intel Mac OS X 10_15_7) AppleWebKit/537.36 (KHTML, like Gecko) Chrome/98.0.4758.109 Safari/537.36","Macintosh","Chrome","98.0.4758.109","OS X","10_15_7","null","null","","","<p style=""font-size:64px;"">+</p>","Z_6_O",""
"","","","","","html-keyboard-response","7","365511","0.0-2.0-0.0-0.0-1.1","21","1","2022-04-02 12:12:44","c79472ad15d8b617a4d57d5bf56a810f","110.23.86.169","Mozilla/5.0 (Macintosh; Intel Mac OS X 10_15_7) AppleWebKit/537.36 (KHTML, like Gecko) Chrome/98.0.4758.109 Safari/537.36","Macintosh","Chrome","98.0.4758.109","OS X","10_15_7","null","null","","","
                        <div class=orange>
                        <div class=""centered"">
                            <p style=""font-size: 24px""><b>53%</b></p>
                        </div>","Z_6_O",""
"","","","","","html-keyboard-response","8","365916","0.0-2.0-0.0-0.0-0.2","21","1","2022-04-02 12:12:44","c79472ad15d8b617a4d57d5bf56a810f","110.23.86.169","Mozilla/5.0 (Macintosh; Intel Mac OS X 10_15_7) AppleWebKit/537.36 (KHTML, like Gecko) Chrome/98.0.4758.109 Safari/537.36","Macintosh","Chrome","98.0.4758.109","OS X","10_15_7","null","null","","","<p style=""font-size:64px;"">+</p>","Z_6_O",""
"","","","","","html-keyboard-response","9","367170","0.0-2.0-0.0-0.0-1.2","21","1","2022-04-02 12:12:44","c79472ad15d8b617a4d57d5bf56a810f","110.23.86.169","Mozilla/5.0 (Macintosh; Intel Mac OS X 10_15_7) AppleWebKit/537.36 (KHTML, like Gecko) Chrome/98.0.4758.109 Safari/537.36","Macintosh","Chrome","98.0.4758.109","OS X","10_15_7","null","null","","","
                        <div class=pink>
                        <div class=""centered"">
                            <p style=""font-size: 24px""><b>54%</b></p>
                        </div>","Z_6_O",""
"","","","","","html-keyboard-response","10","367575","0.0-2.0-0.0-0.0-0.3","21","1","2022-04-02 12:12:44","c79472ad15d8b617a4d57d5bf56a810f","110.23.86.169","Mozilla/5.0 (Macintosh; Intel Mac OS X 10_15_7) AppleWebKit/537.36 (KHTML, like Gecko) Chrome/98.0.4758.109 Safari/537.36","Macintosh","Chrome","98.0.4758.109","OS X","10_15_7","null","null","","","<p style=""font-size:64px;"">+</p>","Z_6_O",""
"","","","","","html-keyboard-response","11","368829","0.0-2.0-0.0-0.0-1.3","21","1","2022-04-02 12:12:44","c79472ad15d8b617a4d57d5bf56a810f","110.23.86.169","Mozilla/5.0 (Macintosh; Intel Mac OS X 10_15_7) AppleWebKit/537.36 (KHTML, like Gecko) Chrome/98.0.4758.109 Safari/537.36","Macintosh","Chrome","98.0.4758.109","OS X","10_15_7","null","null","","","
                        <div class=orange>
                        <div class=""centered"">
                            <p style=""font-size: 24px""><b>55%</b></p>
                        </div>","Z_6_O",""
"","","","","","html-keyboard-response","12","369234","0.0-2.0-0.0-0.0-0.4","21","1","2022-04-02 12:12:44","c79472ad15d8b617a4d57d5bf56a810f","110.23.86.169","Mozilla/5.0 (Macintosh; Intel Mac OS X 10_15_7) AppleWebKit/537.36 (KHTML, like Gecko) Chrome/98.0.4758.109 Safari/537.36","Macintosh","Chrome","98.0.4758.109","OS X","10_15_7","null","null","","","<p style=""font-size:64px;"">+</p>","Z_6_O",""
"","","","","","html-keyboard-response","13","370487","0.0-2.0-0.0-0.0-1.4","21","1","2022-04-02 12:12:44","c79472ad15d8b617a4d57d5bf56a810f","110.23.86.169","Mozilla/5.0 (Macintosh; Intel Mac OS X 10_15_7) AppleWebKit/537.36 (KHTML, like Gecko) Chrome/98.0.4758.109 Safari/537.36","Macintosh","Chrome","98.0.4758.109","OS X","10_15_7","null","null","","","
                        <div class=orange>
                        <div class=""centered"">
                            <p style=""font-size: 24px""><b>55%</b></p>
                        </div>","Z_6_O",""
"","","","","","html-keyboard-response","14","370888","0.0-2.0-0.0-0.0-0.5","21","1","2022-04-02 12:12:44","c79472ad15d8b617a4d57d5bf56a810f","110.23.86.169","Mozilla/5.0 (Macintosh; Intel Mac OS X 10_15_7) AppleWebKit/537.36 (KHTML, like Gecko) Chrome/98.0.4758.109 Safari/537.36","Macintosh","Chrome","98.0.4758.109","OS X","10_15_7","null","null","","","<p style=""font-size:64px;"">+</p>","Z_6_O",""
"","","","","","html-keyboard-response","15","372140","0.0-2.0-0.0-0.0-1.5","21","1","2022-04-02 12:12:44","c79472ad15d8b617a4d57d5bf56a810f","110.23.86.169","Mozilla/5.0 (Macintosh; Intel Mac OS X 10_15_7) AppleWebKit/537.36 (KHTML, like Gecko) Chrome/98.0.4758.109 Safari/537.36","Macintosh","Chrome","98.0.4758.109","OS X","10_15_7","null","null","","","
                        <div class=pink>
                        <div class=""centered"">
                            <p style=""font-size: 24px""><b>54%</b></p>
                        </div>","Z_6_O",""
"","","","","","html-keyboard-response","16","372545","0.0-2.0-0.0-1.0-0.0","21","1","2022-04-02 12:12:44","c79472ad15d8b617a4d57d5bf56a810f","110.23.86.169","Mozilla/5.0 (Macintosh; Intel Mac OS X 10_15_7) AppleWebKit/537.36 (KHTML, like Gecko) Chrome/98.0.4758.109 Safari/537.36","Macintosh","Chrome","98.0.4758.109","OS X","10_15_7","null","null","","","<p style=""font-size:64px;"">+</p>","Z_6_O",""
"","","","","","html-keyboard-response","17","373800","0.0-2.0-0.0-1.0-1.0","21","1","2022-04-02 12:12:44","c79472ad15d8b617a4d57d5bf56a810f","110.23.86.169","Mozilla/5.0 (Macintosh; Intel Mac OS X 10_15_7) AppleWebKit/537.36 (KHTML, like Gecko) Chrome/98.0.4758.109 Safari/537.36","Macintosh","Chrome","98.0.4758.109","OS X","10_15_7","null","null","","","
                        <div class=""orange"">
                        <div class=""centered"">
                            <p style=""font-size: 24px""><b>50%</b></p>
                        </div>","Z_6_O",""
"","","","","","html-slider-response","18","379111","0.0-2.0-0.0-2.0","21","1","2022-04-02 12:12:44","c79472ad15d8b617a4d57d5bf56a810f","110.23.86.169","Mozilla/5.0 (Macintosh; Intel Mac OS X 10_15_7) AppleWebKit/537.36 (KHTML, like Gecko) Chrome/98.0.4758.109 Safari/537.36","Macintosh","Chrome","98.0.4758.109","OS X","10_15_7","5309","25","","","<div style=""width: 500px; height: 100px;""><p>Place your bid for more information.</p></div>","infoBid","43"
"","","","","","html-keyboard-response","19","379516","0.0-2.0-0.0-3.0-0.0","21","1","2022-04-02 12:12:44","c79472ad15d8b617a4d57d5bf56a810f","110.23.86.169","Mozilla/5.0 (Macintosh; Intel Mac OS X 10_15_7) AppleWebKit/537.36 (KHTML, like Gecko) Chrome/98.0.4758.109 Safari/537.36","Macintosh","Chrome","98.0.4758.109","OS X","10_15_7","null","null","","","<p style=""font-size:64px;"">+</p>","Z_6_O",""
"","","","","","html-keyboard-response","20","380770","0.0-2.0-0.0-3.0-1.0","21","1","2022-04-02 12:12:44","c79472ad15d8b617a4d57d5bf56a810f","110.23.86.169","Mozilla/5.0 (Macintosh; Intel Mac OS X 10_15_7) AppleWebKit/537.36 (KHTML, like Gecko) Chrome/98.0.4758.109 Safari/537.36","Macintosh","Chrome","98.0.4758.109","OS X","10_15_7","null","null","","","<div class=""grey"">
                <div class=""centered"">
                    <p style=""font-size: 24px""><b>???</b></p>
                </div>","Z_6_O",""
"","","","","","html-keyboard-response","21","382738","0.0-2.0-0.0-4.0-0.0","21","1","2022-04-02 12:12:44","c79472ad15d8b617a4d57d5bf56a810f","110.23.86.169","Mozilla/5.0 (Macintosh; Intel Mac OS X 10_15_7) AppleWebKit/537.36 (KHTML, like Gecko) Chrome/98.0.4758.109 Safari/537.36","Macintosh","Chrome","98.0.4758.109","OS X","10_15_7","1966.3999998569489","f","","","
                      <div class=""row"">

                          <div class=""column"">
                              <div class=""orange""></div>
                              <div class=""leftChoiceText"">
                                  <p style=""font-size: 32px""><b>F</b></p>
                              </div>
                          </div>

                          <div class=""column"">
                              <div class=""pink""></div>
                              <div class=""rightChoiceText"">
                                  <p style=""font-size: 32px""><b>J</b></p>
                              </div>
                          </div>

                      </div>

                      <div class=""centeredTop"">
                          Which colour do you<br>
                          predict will win?
                      </div>","Z_6_O",""
"","","","","","html-keyboard-response","22","384242","0.0-2.0-0.0-4.0-1.0","21","1","2022-04-02 12:12:44","c79472ad15d8b617a4d57d5bf56a810f","110.23.86.169","Mozilla/5.0 (Macintosh; Intel Mac OS X 10_15_7) AppleWebKit/537.36 (KHTML, like Gecko) Chrome/98.0.4758.109 Safari/537.36","Macintosh","Chrome","98.0.4758.109","OS X","10_15_7","null","null","","","<p style=""font-size:64px;"">+</p>","Z_6_O",""
"","","","","","html-keyboard-response","23","384647","0.0-2.0-1.0-0.0-0.0","21","1","2022-04-02 12:12:44","c79472ad15d8b617a4d57d5bf56a810f","110.23.86.169","Mozilla/5.0 (Macintosh; Intel Mac OS X 10_15_7) AppleWebKit/537.36 (KHTML, like Gecko) Chrome/98.0.4758.109 Safari/537.36","Macintosh","Chrome","98.0.4758.109","OS X","10_15_7","null","null","","","<p style=""font-size:64px;"">+</p>","P_2_5_P",""
"","","","","","html-keyboard-response","24","385900","0.0-2.0-1.0-0.0-1.0","21","1","2022-04-02 12:12:44","c79472ad15d8b617a4d57d5bf56a810f","110.23.86.169","Mozilla/5.0 (Macintosh; Intel Mac OS X 10_15_7) AppleWebKit/537.36 (KHTML, like Gecko) Chrome/98.0.4758.109 Safari/537.36","Macintosh","Chrome","98.0.4758.109","OS X","10_15_7","null","null","","","
                        <div class=pink>
                        <div class=""centered"">
                            <p style=""font-size: 24px""><b>53%</b></p>
                        </div>","P_2_5_P",""
"","","","","","html-keyboard-response","25","386306","0.0-2.0-1.0-0.0-0.1","21","1","2022-04-02 12:12:44","c79472ad15d8b617a4d57d5bf56a810f","110.23.86.169","Mozilla/5.0 (Macintosh; Intel Mac OS X 10_15_7) AppleWebKit/537.36 (KHTML, like Gecko) Chrome/98.0.4758.109 Safari/537.36","Macintosh","Chrome","98.0.4758.109","OS X","10_15_7","null","null","","","<p style=""font-size:64px;"">+</p>","P_2_5_P",""
"","","","","","html-keyboard-response","26","387561","0.0-2.0-1.0-0.0-1.1","21","1","2022-04-02 12:12:44","c79472ad15d8b617a4d57d5bf56a810f","110.23.86.169","Mozilla/5.0 (Macintosh; Intel Mac OS X 10_15_7) AppleWebKit/537.36 (KHTML, like Gecko) Chrome/98.0.4758.109 Safari/537.36","Macintosh","Chrome","98.0.4758.109","OS X","10_15_7","null","null","","","
                        <div class=orange>
                        <div class=""centered"">
                            <p style=""font-size: 24px""><b>52%</b></p>
                        </div>","P_2_5_P",""
"","","","","","html-keyboard-response","27","387965","0.0-2.0-1.0-0.0-0.2","21","1","2022-04-02 12:12:44","c79472ad15d8b617a4d57d5bf56a810f","110.23.86.169","Mozilla/5.0 (Macintosh; Intel Mac OS X 10_15_7) AppleWebKit/537.36 (KHTML, like Gecko) Chrome/98.0.4758.109 Safari/537.36","Macintosh","Chrome","98.0.4758.109","OS X","10_15_7","null","null","","","<p style=""font-size:64px;"">+</p>","P_2_5_P",""
"","","","","","html-keyboard-response","28","389218","0.0-2.0-1.0-0.0-1.2","21","1","2022-04-02 12:12:44","c79472ad15d8b617a4d57d5bf56a810f","110.23.86.169","Mozilla/5.0 (Macintosh; Intel Mac OS X 10_15_7) AppleWebKit/537.36 (KHTML, like Gecko) Chrome/98.0.4758.109 Safari/537.36","Macintosh","Chrome","98.0.4758.109","OS X","10_15_7","null","null","","","
                        <div class=orange>
                        <div class=""centered"">
                            <p style=""font-size: 24px""><b>55%</b></p>
                        </div>","P_2_5_P",""
"","","","","","html-keyboard-response","29","389623","0.0-2.0-1.0-0.0-0.3","21","1","2022-04-02 12:12:44","c79472ad15d8b617a4d57d5bf56a810f","110.23.86.169","Mozilla/5.0 (Macintosh; Intel Mac OS X 10_15_7) AppleWebKit/537.36 (KHTML, like Gecko) Chrome/98.0.4758.109 Safari/537.36","Macintosh","Chrome","98.0.4758.109","OS X","10_15_7","null","null","","","<p style=""font-size:64px;"">+</p>","P_2_5_P",""
"","","","","","html-keyboard-response","30","390876","0.0-2.0-1.0-0.0-1.3","21","1","2022-04-02 12:12:44","c79472ad15d8b617a4d57d5bf56a810f","110.23.86.169","Mozilla/5.0 (Macintosh; Intel Mac OS X 10_15_7) AppleWebKit/537.36 (KHTML, like Gecko) Chrome/98.0.4758.109 Safari/537.36","Macintosh","Chrome","98.0.4758.109","OS X","10_15_7","null","null","","","
                        <div class=pink>
                        <div class=""centered"">
                            <p style=""font-size: 24px""><b>55%</b></p>
                        </div>","P_2_5_P",""
"","","","","","html-keyboard-response","31","391282","0.0-2.0-1.0-0.0-0.4","21","1","2022-04-02 12:12:44","c79472ad15d8b617a4d57d5bf56a810f","110.23.86.169","Mozilla/5.0 (Macintosh; Intel Mac OS X 10_15_7) AppleWebKit/537.36 (KHTML, like Gecko) Chrome/98.0.4758.109 Safari/537.36","Macintosh","Chrome","98.0.4758.109","OS X","10_15_7","null","null","","","<p style=""font-size:64px;"">+</p>","P_2_5_P",""
"","","","","","html-keyboard-response","32","392535","0.0-2.0-1.0-0.0-1.4","21","1","2022-04-02 12:12:44","c79472ad15d8b617a4d57d5bf56a810f","110.23.86.169","Mozilla/5.0 (Macintosh; Intel Mac OS X 10_15_7) AppleWebKit/537.36 (KHTML, like Gecko) Chrome/98.0.4758.109 Safari/537.36","Macintosh","Chrome","98.0.4758.109","OS X","10_15_7","null","null","","","
                        <div class=pink>
                        <div class=""centered"">
                            <p style=""font-size: 24px""><b>53%</b></p>
                        </div>","P_2_5_P",""
"","","","","","html-keyboard-response","33","392941","0.0-2.0-1.0-0.0-0.5","21","1","2022-04-02 12:12:44","c79472ad15d8b617a4d57d5bf56a810f","110.23.86.169","Mozilla/5.0 (Macintosh; Intel Mac OS X 10_15_7) AppleWebKit/537.36 (KHTML, like Gecko) Chrome/98.0.4758.109 Safari/537.36","Macintosh","Chrome","98.0.4758.109","OS X","10_15_7","null","null","","","<p style=""font-size:64px;"">+</p>","P_2_5_P",""
"","","","","","html-keyboard-response","34","394194","0.0-2.0-1.0-0.0-1.5","21","1","2022-04-02 12:12:44","c79472ad15d8b617a4d57d5bf56a810f","110.23.86.169","Mozilla/5.0 (Macintosh; Intel Mac OS X 10_15_7) AppleWebKit/537.36 (KHTML, like Gecko) Chrome/98.0.4758.109 Safari/537.36","Macintosh","Chrome","98.0.4758.109","OS X","10_15_7","null","null","","","
                        <div class=orange>
                        <div class=""centered"">
                            <p style=""font-size: 24px""><b>52%</b></p>
                        </div>","P_2_5_P",""
"","","","","","html-keyboard-response","35","394599","0.0-2.0-1.0-1.0-0.0","21","1","2022-04-02 12:12:44","c79472ad15d8b617a4d57d5bf56a810f","110.23.86.169","Mozilla/5.0 (Macintosh; Intel Mac OS X 10_15_7) AppleWebKit/537.36 (KHTML, like Gecko) Chrome/98.0.4758.109 Safari/537.36","Macintosh","Chrome","98.0.4758.109","OS X","10_15_7","null","null","","","<p style=""font-size:64px;"">+</p>","P_2_5_P",""
"","","","","","html-keyboard-response","36","395852","0.0-2.0-1.0-1.0-1.0","21","1","2022-04-02 12:12:44","c79472ad15d8b617a4d57d5bf56a810f","110.23.86.169","Mozilla/5.0 (Macintosh; Intel Mac OS X 10_15_7) AppleWebKit/537.36 (KHTML, like Gecko) Chrome/98.0.4758.109 Safari/537.36","Macintosh","Chrome","98.0.4758.109","OS X","10_15_7","null","null","","","
                        <div class=""pink"">
                        <div class=""centered"">
                            <p style=""font-size: 24px""><b>50%</b></p>
                        </div>","P_2_5_P",""
"","","","","","html-slider-response","37","400263","0.0-2.0-1.0-2.0","21","1","2022-04-02 12:12:44","c79472ad15d8b617a4d57d5bf56a810f","110.23.86.169","Mozilla/5.0 (Macintosh; Intel Mac OS X 10_15_7) AppleWebKit/537.36 (KHTML, like Gecko) Chrome/98.0.4758.109 Safari/537.36","Macintosh","Chrome","98.0.4758.109","OS X","10_15_7","4409.099999904633","41","","","<div style=""width: 500px; height: 100px;""><p>Place your bid for more information.</p></div>","infoBid","12"
"","","","","","html-keyboard-response","38","400668","0.0-2.0-1.0-3.0-0.0","21","1","2022-04-02 12:12:44","c79472ad15d8b617a4d57d5bf56a810f","110.23.86.169","Mozilla/5.0 (Macintosh; Intel Mac OS X 10_15_7) AppleWebKit/537.36 (KHTML, like Gecko) Chrome/98.0.4758.109 Safari/537.36","Macintosh","Chrome","98.0.4758.109","OS X","10_15_7","null","null","","","<p style=""font-size:64px;"">+</p>","P_2_5_P",""
"","","","","","html-keyboard-response","39","401922","0.0-2.0-1.0-3.0-1.0","21","1","2022-04-02 12:12:44","c79472ad15d8b617a4d57d5bf56a810f","110.23.86.169","Mozilla/5.0 (Macintosh; Intel Mac OS X 10_15_7) AppleWebKit/537.36 (KHTML, like Gecko) Chrome/98.0.4758.109 Safari/537.36","Macintosh","Chrome","98.0.4758.109","OS X","10_15_7","null","null","","","<div class=orange>
                <div class=""centered"">
                    <p style=""font-size: 24px""><b>53%</b></p>
                </div>","P_2_5_P",""
"","","","","","html-keyboard-response","40","406892","0.0-2.0-1.0-4.0-0.0","21","1","2022-04-02 12:12:44","c79472ad15d8b617a4d57d5bf56a810f","110.23.86.169","Mozilla/5.0 (Macintosh; Intel Mac OS X 10_15_7) AppleWebKit/537.36 (KHTML, like Gecko) Chrome/98.0.4758.109 Safari/537.36","Macintosh","Chrome","98.0.4758.109","OS X","10_15_7","4968.200000047684","f","","","
                      <div class=""row"">

                          <div class=""column"">
                              <div class=""orange""></div>
                              <div class=""leftChoiceText"">
                                  <p style=""font-size: 32px""><b>F</b></p>
                              </div>
                          </div>

                          <div class=""column"">
                              <div class=""pink""></div>
                              <div class=""rightChoiceText"">
                                  <p style=""font-size: 32px""><b>J</b></p>
                              </div>
                          </div>

                      </div>

                      <div class=""centeredTop"">
                          Which colour do you<br>
                          predict will win?
                      </div>","P_2_5_P",""
"","","","","","html-keyboard-response","41","408397","0.0-2.0-1.0-4.0-1.0","21","1","2022-04-02 12:12:44","c79472ad15d8b617a4d57d5bf56a810f","110.23.86.169","Mozilla/5.0 (Macintosh; Intel Mac OS X 10_15_7) AppleWebKit/537.36 (KHTML, like Gecko) Chrome/98.0.4758.109 Safari/537.36","Macintosh","Chrome","98.0.4758.109","OS X","10_15_7","null","null","","","<p style=""font-size:64px;"">+</p>","P_2_5_P",""
"","","","","","html-keyboard-response","42","408802","0.0-2.0-2.0-0.0-0.0","21","1","2022-04-02 12:12:44","c79472ad15d8b617a4d57d5bf56a810f","110.23.86.169","Mozilla/5.0 (Macintosh; Intel Mac OS X 10_15_7) AppleWebKit/537.36 (KHTML, like Gecko) Chrome/98.0.4758.109 Safari/537.36","Macintosh","Chrome","98.0.4758.109","OS X","10_15_7","null","null","","","<p style=""font-size:64px;"">+</p>","Z_2_P",""
"","","","","","html-keyboard-response","43","410057","0.0-2.0-2.0-0.0-1.0","21","1","2022-04-02 12:12:44","c79472ad15d8b617a4d57d5bf56a810f","110.23.86.169","Mozilla/5.0 (Macintosh; Intel Mac OS X 10_15_7) AppleWebKit/537.36 (KHTML, like Gecko) Chrome/98.0.4758.109 Safari/537.36","Macintosh","Chrome","98.0.4758.109","OS X","10_15_7","null","null","","","
                        <div class=pink>
                        <div class=""centered"">
                            <p style=""font-size: 24px""><b>54%</b></p>
                        </div>","Z_2_P",""
"","","","","","html-keyboard-response","44","410460","0.0-2.0-2.0-0.0-0.1","21","1","2022-04-02 12:12:44","c79472ad15d8b617a4d57d5bf56a810f","110.23.86.169","Mozilla/5.0 (Macintosh; Intel Mac OS X 10_15_7) AppleWebKit/537.36 (KHTML, like Gecko) Chrome/98.0.4758.109 Safari/537.36","Macintosh","Chrome","98.0.4758.109","OS X","10_15_7","null","null","","","<p style=""font-size:64px;"">+</p>","Z_2_P",""
"","","","","","html-keyboard-response","45","411714","0.0-2.0-2.0-0.0-1.1","21","1","2022-04-02 12:12:44","c79472ad15d8b617a4d57d5bf56a810f","110.23.86.169","Mozilla/5.0 (Macintosh; Intel Mac OS X 10_15_7) AppleWebKit/537.36 (KHTML, like Gecko) Chrome/98.0.4758.109 Safari/537.36","Macintosh","Chrome","98.0.4758.109","OS X","10_15_7","null","null","","","
                        <div class=orange>
                        <div class=""centered"">
                            <p style=""font-size: 24px""><b>52%</b></p>
                        </div>","Z_2_P",""
"","","","","","html-keyboard-response","46","412119","0.0-2.0-2.0-0.0-0.2","21","1","2022-04-02 12:12:44","c79472ad15d8b617a4d57d5bf56a810f","110.23.86.169","Mozilla/5.0 (Macintosh; Intel Mac OS X 10_15_7) AppleWebKit/537.36 (KHTML, like Gecko) Chrome/98.0.4758.109 Safari/537.36","Macintosh","Chrome","98.0.4758.109","OS X","10_15_7","null","null","","","<p style=""font-size:64px;"">+</p>","Z_2_P",""
"","","","","","html-keyboard-response","47","413372","0.0-2.0-2.0-0.0-1.2","21","1","2022-04-02 12:12:44","c79472ad15d8b617a4d57d5bf56a810f","110.23.86.169","Mozilla/5.0 (Macintosh; Intel Mac OS X 10_15_7) AppleWebKit/537.36 (KHTML, like Gecko) Chrome/98.0.4758.109 Safari/537.36","Macintosh","Chrome","98.0.4758.109","OS X","10_15_7","null","null","","","
                        <div class=pink>
                        <div class=""centered"">
                            <p style=""font-size: 24px""><b>52%</b></p>
                        </div>","Z_2_P",""
"","","","","","html-keyboard-response","48","413778","0.0-2.0-2.0-0.0-0.3","21","1","2022-04-02 12:12:44","c79472ad15d8b617a4d57d5bf56a810f","110.23.86.169","Mozilla/5.0 (Macintosh; Intel Mac OS X 10_15_7) AppleWebKit/537.36 (KHTML, like Gecko) Chrome/98.0.4758.109 Safari/537.36","Macintosh","Chrome","98.0.4758.109","OS X","10_15_7","null","null","","","<p style=""font-size:64px;"">+</p>","Z_2_P",""
"","","","","","html-keyboard-response","49","415031","0.0-2.0-2.0-0.0-1.3","21","1","2022-04-02 12:12:44","c79472ad15d8b617a4d57d5bf56a810f","110.23.86.169","Mozilla/5.0 (Macintosh; Intel Mac OS X 10_15_7) AppleWebKit/537.36 (KHTML, like Gecko) Chrome/98.0.4758.109 Safari/537.36","Macintosh","Chrome","98.0.4758.109","OS X","10_15_7","null","null","","","
                        <div class=pink>
                        <div class=""centered"">
                            <p style=""font-size: 24px""><b>51%</b></p>
                        </div>","Z_2_P",""
"","","","","","html-keyboard-response","50","415436","0.0-2.0-2.0-0.0-0.4","21","1","2022-04-02 12:12:44","c79472ad15d8b617a4d57d5bf56a810f","110.23.86.169","Mozilla/5.0 (Macintosh; Intel Mac OS X 10_15_7) AppleWebKit/537.36 (KHTML, like Gecko) Chrome/98.0.4758.109 Safari/537.36","Macintosh","Chrome","98.0.4758.109","OS X","10_15_7","null","null","","","<p style=""font-size:64px;"">+</p>","Z_2_P",""
"","","","","","html-keyboard-response","51","416690","0.0-2.0-2.0-0.0-1.4","21","1","2022-04-02 12:12:44","c79472ad15d8b617a4d57d5bf56a810f","110.23.86.169","Mozilla/5.0 (Macintosh; Intel Mac OS X 10_15_7) AppleWebKit/537.36 (KHTML, like Gecko) Chrome/98.0.4758.109 Safari/537.36","Macintosh","Chrome","98.0.4758.109","OS X","10_15_7","null","null","","","
                        <div class=orange>
                        <div class=""centered"">
                            <p style=""font-size: 24px""><b>53%</b></p>
                        </div>","Z_2_P",""
"","","","","","html-keyboard-response","52","417093","0.0-2.0-2.0-0.0-0.5","21","1","2022-04-02 12:12:44","c79472ad15d8b617a4d57d5bf56a810f","110.23.86.169","Mozilla/5.0 (Macintosh; Intel Mac OS X 10_15_7) AppleWebKit/537.36 (KHTML, like Gecko) Chrome/98.0.4758.109 Safari/537.36","Macintosh","Chrome","98.0.4758.109","OS X","10_15_7","null","null","","","<p style=""font-size:64px;"">+</p>","Z_2_P",""
"","","","","","html-keyboard-response","53","418349","0.0-2.0-2.0-0.0-1.5","21","1","2022-04-02 12:12:44","c79472ad15d8b617a4d57d5bf56a810f","110.23.86.169","Mozilla/5.0 (Macintosh; Intel Mac OS X 10_15_7) AppleWebKit/537.36 (KHTML, like Gecko) Chrome/98.0.4758.109 Safari/537.36","Macintosh","Chrome","98.0.4758.109","OS X","10_15_7","null","null","","","
                        <div class=orange>
                        <div class=""centered"">
                            <p style=""font-size: 24px""><b>52%</b></p>
                        </div>","Z_2_P",""
"","","","","","html-keyboard-response","54","418753","0.0-2.0-2.0-1.0-0.0","21","1","2022-04-02 12:12:44","c79472ad15d8b617a4d57d5bf56a810f","110.23.86.169","Mozilla/5.0 (Macintosh; Intel Mac OS X 10_15_7) AppleWebKit/537.36 (KHTML, like Gecko) Chrome/98.0.4758.109 Safari/537.36","Macintosh","Chrome","98.0.4758.109","OS X","10_15_7","null","null","","","<p style=""font-size:64px;"">+</p>","Z_2_P",""
"","","","","","html-keyboard-response","55","420007","0.0-2.0-2.0-1.0-1.0","21","1","2022-04-02 12:12:44","c79472ad15d8b617a4d57d5bf56a810f","110.23.86.169","Mozilla/5.0 (Macintosh; Intel Mac OS X 10_15_7) AppleWebKit/537.36 (KHTML, like Gecko) Chrome/98.0.4758.109 Safari/537.36","Macintosh","Chrome","98.0.4758.109","OS X","10_15_7","null","null","","","
                        <div class=""pink"">
                        <div class=""centered"">
                            <p style=""font-size: 24px""><b>50%</b></p>
                        </div>","Z_2_P",""
"","","","","","html-slider-response","56","422680","0.0-2.0-2.0-2.0","21","1","2022-04-02 12:12:44","c79472ad15d8b617a4d57d5bf56a810f","110.23.86.169","Mozilla/5.0 (Macintosh; Intel Mac OS X 10_15_7) AppleWebKit/537.36 (KHTML, like Gecko) Chrome/98.0.4758.109 Safari/537.36","Macintosh","Chrome","98.0.4758.109","OS X","10_15_7","2672","25","","","<div style=""width: 500px; height: 100px;""><p>Place your bid for more information.</p></div>","infoBid","39"
"","","","","","html-keyboard-response","57","423085","0.0-2.0-2.0-3.0-0.0","21","1","2022-04-02 12:12:44","c79472ad15d8b617a4d57d5bf56a810f","110.23.86.169","Mozilla/5.0 (Macintosh; Intel Mac OS X 10_15_7) AppleWebKit/537.36 (KHTML, like Gecko) Chrome/98.0.4758.109 Safari/537.36","Macintosh","Chrome","98.0.4758.109","OS X","10_15_7","null","null","","","<p style=""font-size:64px;"">+</p>","Z_2_P",""
"","","","","","html-keyboard-response","58","424336","0.0-2.0-2.0-3.0-1.0","21","1","2022-04-02 12:12:44","c79472ad15d8b617a4d57d5bf56a810f","110.23.86.169","Mozilla/5.0 (Macintosh; Intel Mac OS X 10_15_7) AppleWebKit/537.36 (KHTML, like Gecko) Chrome/98.0.4758.109 Safari/537.36","Macintosh","Chrome","98.0.4758.109","OS X","10_15_7","null","null","","","<div class=""grey"">
                <div class=""centered"">
                    <p style=""font-size: 24px""><b>???</b></p>
                </div>","Z_2_P",""
"","","","","","html-keyboard-response","59","425469","0.0-2.0-2.0-4.0-0.0","21","1","2022-04-02 12:12:44","c79472ad15d8b617a4d57d5bf56a810f","110.23.86.169","Mozilla/5.0 (Macintosh; Intel Mac OS X 10_15_7) AppleWebKit/537.36 (KHTML, like Gecko) Chrome/98.0.4758.109 Safari/537.36","Macintosh","Chrome","98.0.4758.109","OS X","10_15_7","1132","j","","","
                      <div class=""row"">

                          <div class=""column"">
                              <div class=""orange""></div>
                              <div class=""leftChoiceText"">
                                  <p style=""font-size: 32px""><b>F</b></p>
                              </div>
                          </div>

                          <div class=""column"">
                              <div class=""pink""></div>
                              <div class=""rightChoiceText"">
                                  <p style=""font-size: 32px""><b>J</b></p>
                              </div>
                          </div>

                      </div>

                      <div class=""centeredTop"">
                          Which colour do you<br>
                          predict will win?
                      </div>","Z_2_P",""
"","","","","","html-keyboard-response","60","426972","0.0-2.0-2.0-4.0-1.0","21","1","2022-04-02 12:12:44","c79472ad15d8b617a4d57d5bf56a810f","110.23.86.169","Mozilla/5.0 (Macintosh; Intel Mac OS X 10_15_7) AppleWebKit/537.36 (KHTML, like Gecko) Chrome/98.0.4758.109 Safari/537.36","Macintosh","Chrome","98.0.4758.109","OS X","10_15_7","null","null","","","<p style=""font-size:64px;"">+</p>","Z_2_P",""
"","","","","","html-keyboard-response","61","427377","0.0-2.0-3.0-0.0-0.0","21","1","2022-04-02 12:12:44","c79472ad15d8b617a4d57d5bf56a810f","110.23.86.169","Mozilla/5.0 (Macintosh; Intel Mac OS X 10_15_7) AppleWebKit/537.36 (KHTML, like Gecko) Chrome/98.0.4758.109 Safari/537.36","Macintosh","Chrome","98.0.4758.109","OS X","10_15_7","null","null","","","<p style=""font-size:64px;"">+</p>","Z_4_O",""
"","","","","","html-keyboard-response","62","428631","0.0-2.0-3.0-0.0-1.0","21","1","2022-04-02 12:12:44","c79472ad15d8b617a4d57d5bf56a810f","110.23.86.169","Mozilla/5.0 (Macintosh; Intel Mac OS X 10_15_7) AppleWebKit/537.36 (KHTML, like Gecko) Chrome/98.0.4758.109 Safari/537.36","Macintosh","Chrome","98.0.4758.109","OS X","10_15_7","null","null","","","
                        <div class=pink>
                        <div class=""centered"">
                            <p style=""font-size: 24px""><b>55%</b></p>
                        </div>","Z_4_O",""
"","","","","","html-keyboard-response","63","429036","0.0-2.0-3.0-0.0-0.1","21","1","2022-04-02 12:12:44","c79472ad15d8b617a4d57d5bf56a810f","110.23.86.169","Mozilla/5.0 (Macintosh; Intel Mac OS X 10_15_7) AppleWebKit/537.36 (KHTML, like Gecko) Chrome/98.0.4758.109 Safari/537.36","Macintosh","Chrome","98.0.4758.109","OS X","10_15_7","null","null","","","<p style=""font-size:64px;"">+</p>","Z_4_O",""
"","","","","","html-keyboard-response","64","430289","0.0-2.0-3.0-0.0-1.1","21","1","2022-04-02 12:12:44","c79472ad15d8b617a4d57d5bf56a810f","110.23.86.169","Mozilla/5.0 (Macintosh; Intel Mac OS X 10_15_7) AppleWebKit/537.36 (KHTML, like Gecko) Chrome/98.0.4758.109 Safari/537.36","Macintosh","Chrome","98.0.4758.109","OS X","10_15_7","null","null","","","
                        <div class=orange>
                        <div class=""centered"">
                            <p style=""font-size: 24px""><b>51%</b></p>
                        </div>","Z_4_O",""
"","","","","","html-keyboard-response","65","430691","0.0-2.0-3.0-0.0-0.2","21","1","2022-04-02 12:12:44","c79472ad15d8b617a4d57d5bf56a810f","110.23.86.169","Mozilla/5.0 (Macintosh; Intel Mac OS X 10_15_7) AppleWebKit/537.36 (KHTML, like Gecko) Chrome/98.0.4758.109 Safari/537.36","Macintosh","Chrome","98.0.4758.109","OS X","10_15_7","null","null","","","<p style=""font-size:64px;"">+</p>","Z_4_O",""
"","","","","","html-keyboard-response","66","431945","0.0-2.0-3.0-0.0-1.2","21","1","2022-04-02 12:12:44","c79472ad15d8b617a4d57d5bf56a810f","110.23.86.169","Mozilla/5.0 (Macintosh; Intel Mac OS X 10_15_7) AppleWebKit/537.36 (KHTML, like Gecko) Chrome/98.0.4758.109 Safari/537.36","Macintosh","Chrome","98.0.4758.109","OS X","10_15_7","null","null","","","
                        <div class=pink>
                        <div class=""centered"">
                            <p style=""font-size: 24px""><b>53%</b></p>
                        </div>","Z_4_O",""
"","","","","","html-keyboard-response","67","432349","0.0-2.0-3.0-0.0-0.3","21","1","2022-04-02 12:12:44","c79472ad15d8b617a4d57d5bf56a810f","110.23.86.169","Mozilla/5.0 (Macintosh; Intel Mac OS X 10_15_7) AppleWebKit/537.36 (KHTML, like Gecko) Chrome/98.0.4758.109 Safari/537.36","Macintosh","Chrome","98.0.4758.109","OS X","10_15_7","null","null","","","<p style=""font-size:64px;"">+</p>","Z_4_O",""
"","","","","","html-keyboard-response","68","433601","0.0-2.0-3.0-0.0-1.3","21","1","2022-04-02 12:12:44","c79472ad15d8b617a4d57d5bf56a810f","110.23.86.169","Mozilla/5.0 (Macintosh; Intel Mac OS X 10_15_7) AppleWebKit/537.36 (KHTML, like Gecko) Chrome/98.0.4758.109 Safari/537.36","Macintosh","Chrome","98.0.4758.109","OS X","10_15_7","null","null","","","
                        <div class=orange>
                        <div class=""centered"">
                            <p style=""font-size: 24px""><b>54%</b></p>
                        </div>","Z_4_O",""
"","","","","","html-keyboard-response","69","434002","0.0-2.0-3.0-0.0-0.4","21","1","2022-04-02 12:12:44","c79472ad15d8b617a4d57d5bf56a810f","110.23.86.169","Mozilla/5.0 (Macintosh; Intel Mac OS X 10_15_7) AppleWebKit/537.36 (KHTML, like Gecko) Chrome/98.0.4758.109 Safari/537.36","Macintosh","Chrome","98.0.4758.109","OS X","10_15_7","null","null","","","<p style=""font-size:64px;"">+</p>","Z_4_O",""
"","","","","","html-keyboard-response","70","435255","0.0-2.0-3.0-0.0-1.4","21","1","2022-04-02 12:12:44","c79472ad15d8b617a4d57d5bf56a810f","110.23.86.169","Mozilla/5.0 (Macintosh; Intel Mac OS X 10_15_7) AppleWebKit/537.36 (KHTML, like Gecko) Chrome/98.0.4758.109 Safari/537.36","Macintosh","Chrome","98.0.4758.109","OS X","10_15_7","null","null","","","
                        <div class=orange>
                        <div class=""centered"">
                            <p style=""font-size: 24px""><b>54%</b></p>
                        </div>","Z_4_O",""
"","","","","","html-keyboard-response","71","435660","0.0-2.0-3.0-0.0-0.5","21","1","2022-04-02 12:12:44","c79472ad15d8b617a4d57d5bf56a810f","110.23.86.169","Mozilla/5.0 (Macintosh; Intel Mac OS X 10_15_7) AppleWebKit/537.36 (KHTML, like Gecko) Chrome/98.0.4758.109 Safari/537.36","Macintosh","Chrome","98.0.4758.109","OS X","10_15_7","null","null","","","<p style=""font-size:64px;"">+</p>","Z_4_O",""
"","","","","","html-keyboard-response","72","436914","0.0-2.0-3.0-0.0-1.5","21","1","2022-04-02 12:12:44","c79472ad15d8b617a4d57d5bf56a810f","110.23.86.169","Mozilla/5.0 (Macintosh; Intel Mac OS X 10_15_7) AppleWebKit/537.36 (KHTML, like Gecko) Chrome/98.0.4758.109 Safari/537.36","Macintosh","Chrome","98.0.4758.109","OS X","10_15_7","null","null","","","
                        <div class=pink>
                        <div class=""centered"">
                            <p style=""font-size: 24px""><b>51%</b></p>
                        </div>","Z_4_O",""
"","","","","","html-keyboard-response","73","437319","0.0-2.0-3.0-1.0-0.0","21","1","2022-04-02 12:12:44","c79472ad15d8b617a4d57d5bf56a810f","110.23.86.169","Mozilla/5.0 (Macintosh; Intel Mac OS X 10_15_7) AppleWebKit/537.36 (KHTML, like Gecko) Chrome/98.0.4758.109 Safari/537.36","Macintosh","Chrome","98.0.4758.109","OS X","10_15_7","null","null","","","<p style=""font-size:64px;"">+</p>","Z_4_O",""
"","","","","","html-keyboard-response","74","438573","0.0-2.0-3.0-1.0-1.0","21","1","2022-04-02 12:12:44","c79472ad15d8b617a4d57d5bf56a810f","110.23.86.169","Mozilla/5.0 (Macintosh; Intel Mac OS X 10_15_7) AppleWebKit/537.36 (KHTML, like Gecko) Chrome/98.0.4758.109 Safari/537.36","Macintosh","Chrome","98.0.4758.109","OS X","10_15_7","null","null","","","
                        <div class=""orange"">
                        <div class=""centered"">
                            <p style=""font-size: 24px""><b>50%</b></p>
                        </div>","Z_4_O",""
"","","","","","html-slider-response","75","442359","0.0-2.0-3.0-2.0","21","1","2022-04-02 12:12:44","c79472ad15d8b617a4d57d5bf56a810f","110.23.86.169","Mozilla/5.0 (Macintosh; Intel Mac OS X 10_15_7) AppleWebKit/537.36 (KHTML, like Gecko) Chrome/98.0.4758.109 Safari/537.36","Macintosh","Chrome","98.0.4758.109","OS X","10_15_7","3784.7000000476837","35","","","<div style=""width: 500px; height: 100px;""><p>Place your bid for more information.</p></div>","infoBid","33"
"","","","","","html-keyboard-response","76","442766","0.0-2.0-3.0-3.0-0.0","21","1","2022-04-02 12:12:44","c79472ad15d8b617a4d57d5bf56a810f","110.23.86.169","Mozilla/5.0 (Macintosh; Intel Mac OS X 10_15_7) AppleWebKit/537.36 (KHTML, like Gecko) Chrome/98.0.4758.109 Safari/537.36","Macintosh","Chrome","98.0.4758.109","OS X","10_15_7","null","null","","","<p style=""font-size:64px;"">+</p>","Z_4_O",""
"","","","","","html-keyboard-response","77","444020","0.0-2.0-3.0-3.0-1.0","21","1","2022-04-02 12:12:44","c79472ad15d8b617a4d57d5bf56a810f","110.23.86.169","Mozilla/5.0 (Macintosh; Intel Mac OS X 10_15_7) AppleWebKit/537.36 (KHTML, like Gecko) Chrome/98.0.4758.109 Safari/537.36","Macintosh","Chrome","98.0.4758.109","OS X","10_15_7","null","null","","","<div class=orange>
                <div class=""centered"">
                    <p style=""font-size: 24px""><b>52%</b></p>
                </div>","Z_4_O",""
"","","","","","html-keyboard-response","78","445374","0.0-2.0-3.0-4.0-0.0","21","1","2022-04-02 12:12:44","c79472ad15d8b617a4d57d5bf56a810f","110.23.86.169","Mozilla/5.0 (Macintosh; Intel Mac OS X 10_15_7) AppleWebKit/537.36 (KHTML, like Gecko) Chrome/98.0.4758.109 Safari/537.36","Macintosh","Chrome","98.0.4758.109","OS X","10_15_7","1353","j","","","
                      <div class=""row"">

                          <div class=""column"">
                              <div class=""orange""></div>
                              <div class=""leftChoiceText"">
                                  <p style=""font-size: 32px""><b>F</b></p>
                              </div>
                          </div>

                          <div class=""column"">
                              <div class=""pink""></div>
                              <div class=""rightChoiceText"">
                                  <p style=""font-size: 32px""><b>J</b></p>
                              </div>
                          </div>

                      </div>

                      <div class=""centeredTop"">
                          Which colour do you<br>
                          predict will win?
                      </div>","Z_4_O",""
"","","","","","html-keyboard-response","79","446877","0.0-2.0-3.0-4.0-1.0","21","1","2022-04-02 12:12:44","c79472ad15d8b617a4d57d5bf56a810f","110.23.86.169","Mozilla/5.0 (Macintosh; Intel Mac OS X 10_15_7) AppleWebKit/537.36 (KHTML, like Gecko) Chrome/98.0.4758.109 Safari/537.36","Macintosh","Chrome","98.0.4758.109","OS X","10_15_7","null","null","","","<p style=""font-size:64px;"">+</p>","Z_4_O",""
"","","","","","html-keyboard-response","80","447282","0.0-2.0-4.0-0.0-0.0","21","1","2022-04-02 12:12:44","c79472ad15d8b617a4d57d5bf56a810f","110.23.86.169","Mozilla/5.0 (Macintosh; Intel Mac OS X 10_15_7) AppleWebKit/537.36 (KHTML, like Gecko) Chrome/98.0.4758.109 Safari/537.36","Macintosh","Chrome","98.0.4758.109","OS X","10_15_7","null","null","","","<p style=""font-size:64px;"">+</p>","O_2_1_P",""
"","","","","","html-keyboard-response","81","448535","0.0-2.0-4.0-0.0-1.0","21","1","2022-04-02 12:12:44","c79472ad15d8b617a4d57d5bf56a810f","110.23.86.169","Mozilla/5.0 (Macintosh; Intel Mac OS X 10_15_7) AppleWebKit/537.36 (KHTML, like Gecko) Chrome/98.0.4758.109 Safari/537.36","Macintosh","Chrome","98.0.4758.109","OS X","10_15_7","null","null","","","
                        <div class=orange>
                        <div class=""centered"">
                            <p style=""font-size: 24px""><b>54%</b></p>
                        </div>","O_2_1_P",""
"","","","","","html-keyboard-response","82","448941","0.0-2.0-4.0-0.0-0.1","21","1","2022-04-02 12:12:44","c79472ad15d8b617a4d57d5bf56a810f","110.23.86.169","Mozilla/5.0 (Macintosh; Intel Mac OS X 10_15_7) AppleWebKit/537.36 (KHTML, like Gecko) Chrome/98.0.4758.109 Safari/537.36","Macintosh","Chrome","98.0.4758.109","OS X","10_15_7","null","null","","","<p style=""font-size:64px;"">+</p>","O_2_1_P",""
"","","","","","html-keyboard-response","83","450195","0.0-2.0-4.0-0.0-1.1","21","1","2022-04-02 12:12:44","c79472ad15d8b617a4d57d5bf56a810f","110.23.86.169","Mozilla/5.0 (Macintosh; Intel Mac OS X 10_15_7) AppleWebKit/537.36 (KHTML, like Gecko) Chrome/98.0.4758.109 Safari/537.36","Macintosh","Chrome","98.0.4758.109","OS X","10_15_7","null","null","","","
                        <div class=orange>
                        <div class=""centered"">
                            <p style=""font-size: 24px""><b>54%</b></p>
                        </div>","O_2_1_P",""
"","","","","","html-keyboard-response","84","450599","0.0-2.0-4.0-0.0-0.2","21","1","2022-04-02 12:12:44","c79472ad15d8b617a4d57d5bf56a810f","110.23.86.169","Mozilla/5.0 (Macintosh; Intel Mac OS X 10_15_7) AppleWebKit/537.36 (KHTML, like Gecko) Chrome/98.0.4758.109 Safari/537.36","Macintosh","Chrome","98.0.4758.109","OS X","10_15_7","null","null","","","<p style=""font-size:64px;"">+</p>","O_2_1_P",""
"","","","","","html-keyboard-response","85","451853","0.0-2.0-4.0-0.0-1.2","21","1","2022-04-02 12:12:44","c79472ad15d8b617a4d57d5bf56a810f","110.23.86.169","Mozilla/5.0 (Macintosh; Intel Mac OS X 10_15_7) AppleWebKit/537.36 (KHTML, like Gecko) Chrome/98.0.4758.109 Safari/537.36","Macintosh","Chrome","98.0.4758.109","OS X","10_15_7","null","null","","","
                        <div class=pink>
                        <div class=""centered"">
                            <p style=""font-size: 24px""><b>51%</b></p>
                        </div>","O_2_1_P",""
"","","","","","html-keyboard-response","86","452258","0.0-2.0-4.0-0.0-0.3","21","1","2022-04-02 12:12:44","c79472ad15d8b617a4d57d5bf56a810f","110.23.86.169","Mozilla/5.0 (Macintosh; Intel Mac OS X 10_15_7) AppleWebKit/537.36 (KHTML, like Gecko) Chrome/98.0.4758.109 Safari/537.36","Macintosh","Chrome","98.0.4758.109","OS X","10_15_7","null","null","","","<p style=""font-size:64px;"">+</p>","O_2_1_P",""
"","","","","","html-keyboard-response","87","453512","0.0-2.0-4.0-0.0-1.3","21","1","2022-04-02 12:12:44","c79472ad15d8b617a4d57d5bf56a810f","110.23.86.169","Mozilla/5.0 (Macintosh; Intel Mac OS X 10_15_7) AppleWebKit/537.36 (KHTML, like Gecko) Chrome/98.0.4758.109 Safari/537.36","Macintosh","Chrome","98.0.4758.109","OS X","10_15_7","null","null","","","
                        <div class=pink>
                        <div class=""centered"">
                            <p style=""font-size: 24px""><b>52%</b></p>
                        </div>","O_2_1_P",""
"","","","","","html-keyboard-response","88","453917","0.0-2.0-4.0-0.0-0.4","21","1","2022-04-02 12:12:44","c79472ad15d8b617a4d57d5bf56a810f","110.23.86.169","Mozilla/5.0 (Macintosh; Intel Mac OS X 10_15_7) AppleWebKit/537.36 (KHTML, like Gecko) Chrome/98.0.4758.109 Safari/537.36","Macintosh","Chrome","98.0.4758.109","OS X","10_15_7","null","null","","","<p style=""font-size:64px;"">+</p>","O_2_1_P",""
"","","","","","html-keyboard-response","89","455170","0.0-2.0-4.0-0.0-1.4","21","1","2022-04-02 12:12:44","c79472ad15d8b617a4d57d5bf56a810f","110.23.86.169","Mozilla/5.0 (Macintosh; Intel Mac OS X 10_15_7) AppleWebKit/537.36 (KHTML, like Gecko) Chrome/98.0.4758.109 Safari/537.36","Macintosh","Chrome","98.0.4758.109","OS X","10_15_7","null","null","","","
                        <div class=pink>
                        <div class=""centered"">
                            <p style=""font-size: 24px""><b>55%</b></p>
                        </div>","O_2_1_P",""
"","","","","","html-keyboard-response","90","455575","0.0-2.0-4.0-0.0-0.5","21","1","2022-04-02 12:12:44","c79472ad15d8b617a4d57d5bf56a810f","110.23.86.169","Mozilla/5.0 (Macintosh; Intel Mac OS X 10_15_7) AppleWebKit/537.36 (KHTML, like Gecko) Chrome/98.0.4758.109 Safari/537.36","Macintosh","Chrome","98.0.4758.109","OS X","10_15_7","null","null","","","<p style=""font-size:64px;"">+</p>","O_2_1_P",""
"","","","","","html-keyboard-response","91","456831","0.0-2.0-4.0-0.0-1.5","21","1","2022-04-02 12:12:44","c79472ad15d8b617a4d57d5bf56a810f","110.23.86.169","Mozilla/5.0 (Macintosh; Intel Mac OS X 10_15_7) AppleWebKit/537.36 (KHTML, like Gecko) Chrome/98.0.4758.109 Safari/537.36","Macintosh","Chrome","98.0.4758.109","OS X","10_15_7","null","null","","","
                        <div class=orange>
                        <div class=""centered"">
                            <p style=""font-size: 24px""><b>52%</b></p>
                        </div>","O_2_1_P",""
"","","","","","html-keyboard-response","92","457234","0.0-2.0-4.0-1.0-0.0","21","1","2022-04-02 12:12:44","c79472ad15d8b617a4d57d5bf56a810f","110.23.86.169","Mozilla/5.0 (Macintosh; Intel Mac OS X 10_15_7) AppleWebKit/537.36 (KHTML, like Gecko) Chrome/98.0.4758.109 Safari/537.36","Macintosh","Chrome","98.0.4758.109","OS X","10_15_7","null","null","","","<p style=""font-size:64px;"">+</p>","O_2_1_P",""
"","","","","","html-keyboard-response","93","458487","0.0-2.0-4.0-1.0-1.0","21","1","2022-04-02 12:12:44","c79472ad15d8b617a4d57d5bf56a810f","110.23.86.169","Mozilla/5.0 (Macintosh; Intel Mac OS X 10_15_7) AppleWebKit/537.36 (KHTML, like Gecko) Chrome/98.0.4758.109 Safari/537.36","Macintosh","Chrome","98.0.4758.109","OS X","10_15_7","null","null","","","
                        <div class=""pink"">
                        <div class=""centered"">
                            <p style=""font-size: 24px""><b>50%</b></p>
                        </div>","O_2_1_P",""
"","","","","","html-slider-response","94","461847","0.0-2.0-4.0-2.0","21","1","2022-04-02 12:12:44","c79472ad15d8b617a4d57d5bf56a810f","110.23.86.169","Mozilla/5.0 (Macintosh; Intel Mac OS X 10_15_7) AppleWebKit/537.36 (KHTML, like Gecko) Chrome/98.0.4758.109 Safari/537.36","Macintosh","Chrome","98.0.4758.109","OS X","10_15_7","3358.699999809265","13","","","<div style=""width: 500px; height: 100px;""><p>Place your bid for more information.</p></div>","infoBid","35"
"","","","","","html-keyboard-response","95","462252","0.0-2.0-4.0-3.0-0.0","21","1","2022-04-02 12:12:44","c79472ad15d8b617a4d57d5bf56a810f","110.23.86.169","Mozilla/5.0 (Macintosh; Intel Mac OS X 10_15_7) AppleWebKit/537.36 (KHTML, like Gecko) Chrome/98.0.4758.109 Safari/537.36","Macintosh","Chrome","98.0.4758.109","OS X","10_15_7","null","null","","","<p style=""font-size:64px;"">+</p>","O_2_1_P",""
"","","","","","html-keyboard-response","96","463506","0.0-2.0-4.0-3.0-1.0","21","1","2022-04-02 12:12:44","c79472ad15d8b617a4d57d5bf56a810f","110.23.86.169","Mozilla/5.0 (Macintosh; Intel Mac OS X 10_15_7) AppleWebKit/537.36 (KHTML, like Gecko) Chrome/98.0.4758.109 Safari/537.36","Macintosh","Chrome","98.0.4758.109","OS X","10_15_7","null","null","","","<div class=""grey"">
                <div class=""centered"">
                    <p style=""font-size: 24px""><b>???</b></p>
                </div>","O_2_1_P",""
"","","","","","html-keyboard-response","97","464300","0.0-2.0-4.0-4.0-0.0","21","1","2022-04-02 12:12:44","c79472ad15d8b617a4d57d5bf56a810f","110.23.86.169","Mozilla/5.0 (Macintosh; Intel Mac OS X 10_15_7) AppleWebKit/537.36 (KHTML, like Gecko) Chrome/98.0.4758.109 Safari/537.36","Macintosh","Chrome","98.0.4758.109","OS X","10_15_7","792.4000000953674","f","","","
                      <div class=""row"">

                          <div class=""column"">
                              <div class=""orange""></div>
                              <div class=""leftChoiceText"">
                                  <p style=""font-size: 32px""><b>F</b></p>
                              </div>
                          </div>

                          <div class=""column"">
                              <div class=""pink""></div>
                              <div class=""rightChoiceText"">
                                  <p style=""font-size: 32px""><b>J</b></p>
                              </div>
                          </div>

                      </div>

                      <div class=""centeredTop"">
                          Which colour do you<br>
                          predict will win?
                      </div>","O_2_1_P",""
"","","","","","html-keyboard-response","98","465804","0.0-2.0-4.0-4.0-1.0","21","1","2022-04-02 12:12:44","c79472ad15d8b617a4d57d5bf56a810f","110.23.86.169","Mozilla/5.0 (Macintosh; Intel Mac OS X 10_15_7) AppleWebKit/537.36 (KHTML, like Gecko) Chrome/98.0.4758.109 Safari/537.36","Macintosh","Chrome","98.0.4758.109","OS X","10_15_7","null","null","","","<p style=""font-size:64px;"">+</p>","O_2_1_P",""
"","","","","","html-keyboard-response","99","466209","0.0-2.0-5.0-0.0-0.0","21","1","2022-04-02 12:12:44","c79472ad15d8b617a4d57d5bf56a810f","110.23.86.169","Mozilla/5.0 (Macintosh; Intel Mac OS X 10_15_7) AppleWebKit/537.36 (KHTML, like Gecko) Chrome/98.0.4758.109 Safari/537.36","Macintosh","Chrome","98.0.4758.109","OS X","10_15_7","null","null","","","<p style=""font-size:64px;"">+</p>","P_2_5_O",""
"","","","","","html-keyboard-response","100","467464","0.0-2.0-5.0-0.0-1.0","21","1","2022-04-02 12:12:44","c79472ad15d8b617a4d57d5bf56a810f","110.23.86.169","Mozilla/5.0 (Macintosh; Intel Mac OS X 10_15_7) AppleWebKit/537.36 (KHTML, like Gecko) Chrome/98.0.4758.109 Safari/537.36","Macintosh","Chrome","98.0.4758.109","OS X","10_15_7","null","null","","","
                        <div class=orange>
                        <div class=""centered"">
                            <p style=""font-size: 24px""><b>52%</b></p>
                        </div>","P_2_5_O",""
"","","","","","html-keyboard-response","101","467869","0.0-2.0-5.0-0.0-0.1","21","1","2022-04-02 12:12:44","c79472ad15d8b617a4d57d5bf56a810f","110.23.86.169","Mozilla/5.0 (Macintosh; Intel Mac OS X 10_15_7) AppleWebKit/537.36 (KHTML, like Gecko) Chrome/98.0.4758.109 Safari/537.36","Macintosh","Chrome","98.0.4758.109","OS X","10_15_7","null","null","","","<p style=""font-size:64px;"">+</p>","P_2_5_O",""
"","","","","","html-keyboard-response","102","469122","0.0-2.0-5.0-0.0-1.1","21","1","2022-04-02 12:12:44","c79472ad15d8b617a4d57d5bf56a810f","110.23.86.169","Mozilla/5.0 (Macintosh; Intel Mac OS X 10_15_7) AppleWebKit/537.36 (KHTML, like Gecko) Chrome/98.0.4758.109 Safari/537.36","Macintosh","Chrome","98.0.4758.109","OS X","10_15_7","null","null","","","
                        <div class=orange>
                        <div class=""centered"">
                            <p style=""font-size: 24px""><b>55%</b></p>
                        </div>","P_2_5_O",""
"","","","","","html-keyboard-response","103","469527","0.0-2.0-5.0-0.0-0.2","21","1","2022-04-02 12:12:44","c79472ad15d8b617a4d57d5bf56a810f","110.23.86.169","Mozilla/5.0 (Macintosh; Intel Mac OS X 10_15_7) AppleWebKit/537.36 (KHTML, like Gecko) Chrome/98.0.4758.109 Safari/537.36","Macintosh","Chrome","98.0.4758.109","OS X","10_15_7","null","null","","","<p style=""font-size:64px;"">+</p>","P_2_5_O",""
"","","","","","html-keyboard-response","104","470781","0.0-2.0-5.0-0.0-1.2","21","1","2022-04-02 12:12:44","c79472ad15d8b617a4d57d5bf56a810f","110.23.86.169","Mozilla/5.0 (Macintosh; Intel Mac OS X 10_15_7) AppleWebKit/537.36 (KHTML, like Gecko) Chrome/98.0.4758.109 Safari/537.36","Macintosh","Chrome","98.0.4758.109","OS X","10_15_7","null","null","","","
                        <div class=pink>
                        <div class=""centered"">
                            <p style=""font-size: 24px""><b>53%</b></p>
                        </div>","P_2_5_O",""
"","","","","","html-keyboard-response","105","471186","0.0-2.0-5.0-0.0-0.3","21","1","2022-04-02 12:12:44","c79472ad15d8b617a4d57d5bf56a810f","110.23.86.169","Mozilla/5.0 (Macintosh; Intel Mac OS X 10_15_7) AppleWebKit/537.36 (KHTML, like Gecko) Chrome/98.0.4758.109 Safari/537.36","Macintosh","Chrome","98.0.4758.109","OS X","10_15_7","null","null","","","<p style=""font-size:64px;"">+</p>","P_2_5_O",""
"","","","","","html-keyboard-response","106","472440","0.0-2.0-5.0-0.0-1.3","21","1","2022-04-02 12:12:44","c79472ad15d8b617a4d57d5bf56a810f","110.23.86.169","Mozilla/5.0 (Macintosh; Intel Mac OS X 10_15_7) AppleWebKit/537.36 (KHTML, like Gecko) Chrome/98.0.4758.109 Safari/537.36","Macintosh","Chrome","98.0.4758.109","OS X","10_15_7","null","null","","","
                        <div class=orange>
                        <div class=""centered"">
                            <p style=""font-size: 24px""><b>52%</b></p>
                        </div>","P_2_5_O",""
"","","","","","html-keyboard-response","107","472845","0.0-2.0-5.0-0.0-0.4","21","1","2022-04-02 12:12:44","c79472ad15d8b617a4d57d5bf56a810f","110.23.86.169","Mozilla/5.0 (Macintosh; Intel Mac OS X 10_15_7) AppleWebKit/537.36 (KHTML, like Gecko) Chrome/98.0.4758.109 Safari/537.36","Macintosh","Chrome","98.0.4758.109","OS X","10_15_7","null","null","","","<p style=""font-size:64px;"">+</p>","P_2_5_O",""
"","","","","","html-keyboard-response","108","474098","0.0-2.0-5.0-0.0-1.4","21","1","2022-04-02 12:12:44","c79472ad15d8b617a4d57d5bf56a810f","110.23.86.169","Mozilla/5.0 (Macintosh; Intel Mac OS X 10_15_7) AppleWebKit/537.36 (KHTML, like Gecko) Chrome/98.0.4758.109 Safari/537.36","Macintosh","Chrome","98.0.4758.109","OS X","10_15_7","null","null","","","
                        <div class=pink>
                        <div class=""centered"">
                            <p style=""font-size: 24px""><b>55%</b></p>
                        </div>","P_2_5_O",""
"","","","","","html-keyboard-response","109","474503","0.0-2.0-5.0-0.0-0.5","21","1","2022-04-02 12:12:44","c79472ad15d8b617a4d57d5bf56a810f","110.23.86.169","Mozilla/5.0 (Macintosh; Intel Mac OS X 10_15_7) AppleWebKit/537.36 (KHTML, like Gecko) Chrome/98.0.4758.109 Safari/537.36","Macintosh","Chrome","98.0.4758.109","OS X","10_15_7","null","null","","","<p style=""font-size:64px;"">+</p>","P_2_5_O",""
"","","","","","html-keyboard-response","110","475757","0.0-2.0-5.0-0.0-1.5","21","1","2022-04-02 12:12:44","c79472ad15d8b617a4d57d5bf56a810f","110.23.86.169","Mozilla/5.0 (Macintosh; Intel Mac OS X 10_15_7) AppleWebKit/537.36 (KHTML, like Gecko) Chrome/98.0.4758.109 Safari/537.36","Macintosh","Chrome","98.0.4758.109","OS X","10_15_7","null","null","","","
                        <div class=pink>
                        <div class=""centered"">
                            <p style=""font-size: 24px""><b>53%</b></p>
                        </div>","P_2_5_O",""
"","","","","","html-keyboard-response","111","476158","0.0-2.0-5.0-1.0-0.0","21","1","2022-04-02 12:12:44","c79472ad15d8b617a4d57d5bf56a810f","110.23.86.169","Mozilla/5.0 (Macintosh; Intel Mac OS X 10_15_7) AppleWebKit/537.36 (KHTML, like Gecko) Chrome/98.0.4758.109 Safari/537.36","Macintosh","Chrome","98.0.4758.109","OS X","10_15_7","null","null","","","<p style=""font-size:64px;"">+</p>","P_2_5_O",""
"","","","","","html-keyboard-response","112","477410","0.0-2.0-5.0-1.0-1.0","21","1","2022-04-02 12:12:44","c79472ad15d8b617a4d57d5bf56a810f","110.23.86.169","Mozilla/5.0 (Macintosh; Intel Mac OS X 10_15_7) AppleWebKit/537.36 (KHTML, like Gecko) Chrome/98.0.4758.109 Safari/537.36","Macintosh","Chrome","98.0.4758.109","OS X","10_15_7","null","null","","","
                        <div class=""orange"">
                        <div class=""centered"">
                            <p style=""font-size: 24px""><b>50%</b></p>
                        </div>","P_2_5_O",""
"","","","","","html-slider-response","113","481057","0.0-2.0-5.0-2.0","21","1","2022-04-02 12:12:44","c79472ad15d8b617a4d57d5bf56a810f","110.23.86.169","Mozilla/5.0 (Macintosh; Intel Mac OS X 10_15_7) AppleWebKit/537.36 (KHTML, like Gecko) Chrome/98.0.4758.109 Safari/537.36","Macintosh","Chrome","98.0.4758.109","OS X","10_15_7","3646.2999999523163","31","","","<div style=""width: 500px; height: 100px;""><p>Place your bid for more information.</p></div>","infoBid","4"
"","","","","","html-keyboard-response","114","481464","0.0-2.0-5.0-3.0-0.0","21","1","2022-04-02 12:12:44","c79472ad15d8b617a4d57d5bf56a810f","110.23.86.169","Mozilla/5.0 (Macintosh; Intel Mac OS X 10_15_7) AppleWebKit/537.36 (KHTML, like Gecko) Chrome/98.0.4758.109 Safari/537.36","Macintosh","Chrome","98.0.4758.109","OS X","10_15_7","null","null","","","<p style=""font-size:64px;"">+</p>","P_2_5_O",""
"","","","","","html-keyboard-response","115","482717","0.0-2.0-5.0-3.0-1.0","21","1","2022-04-02 12:12:44","c79472ad15d8b617a4d57d5bf56a810f","110.23.86.169","Mozilla/5.0 (Macintosh; Intel Mac OS X 10_15_7) AppleWebKit/537.36 (KHTML, like Gecko) Chrome/98.0.4758.109 Safari/537.36","Macintosh","Chrome","98.0.4758.109","OS X","10_15_7","null","null","","","<div class=orange>
                <div class=""centered"">
                    <p style=""font-size: 24px""><b>53%</b></p>
                </div>","P_2_5_O",""
"","","","","","html-keyboard-response","116","483641","0.0-2.0-5.0-4.0-0.0","21","1","2022-04-02 12:12:44","c79472ad15d8b617a4d57d5bf56a810f","110.23.86.169","Mozilla/5.0 (Macintosh; Intel Mac OS X 10_15_7) AppleWebKit/537.36 (KHTML, like Gecko) Chrome/98.0.4758.109 Safari/537.36","Macintosh","Chrome","98.0.4758.109","OS X","10_15_7","923.2000000476837","f","","","
                      <div class=""row"">

                          <div class=""column"">
                              <div class=""orange""></div>
                              <div class=""leftChoiceText"">
                                  <p style=""font-size: 32px""><b>F</b></p>
                              </div>
                          </div>

                          <div class=""column"">
                              <div class=""pink""></div>
                              <div class=""rightChoiceText"">
                                  <p style=""font-size: 32px""><b>J</b></p>
                              </div>
                          </div>

                      </div>

                      <div class=""centeredTop"">
                          Which colour do you<br>
                          predict will win?
                      </div>","P_2_5_O",""
"","","","","","html-keyboard-response","117","485143","0.0-2.0-5.0-4.0-1.0","21","1","2022-04-02 12:12:44","c79472ad15d8b617a4d57d5bf56a810f","110.23.86.169","Mozilla/5.0 (Macintosh; Intel Mac OS X 10_15_7) AppleWebKit/537.36 (KHTML, like Gecko) Chrome/98.0.4758.109 Safari/537.36","Macintosh","Chrome","98.0.4758.109","OS X","10_15_7","null","null","","","<p style=""font-size:64px;"">+</p>","P_2_5_O",""
"","","","","","html-keyboard-response","118","485549","0.0-2.0-6.0-0.0-0.0","21","1","2022-04-02 12:12:44","c79472ad15d8b617a4d57d5bf56a810f","110.23.86.169","Mozilla/5.0 (Macintosh; Intel Mac OS X 10_15_7) AppleWebKit/537.36 (KHTML, like Gecko) Chrome/98.0.4758.109 Safari/537.36","Macintosh","Chrome","98.0.4758.109","OS X","10_15_7","null","null","","","<p style=""font-size:64px;"">+</p>","O_6_6_P",""
"","","","","","html-keyboard-response","119","486802","0.0-2.0-6.0-0.0-1.0","21","1","2022-04-02 12:12:44","c79472ad15d8b617a4d57d5bf56a810f","110.23.86.169","Mozilla/5.0 (Macintosh; Intel Mac OS X 10_15_7) AppleWebKit/537.36 (KHTML, like Gecko) Chrome/98.0.4758.109 Safari/537.36","Macintosh","Chrome","98.0.4758.109","OS X","10_15_7","null","null","","","
                        <div class=pink>
                        <div class=""centered"">
                            <p style=""font-size: 24px""><b>53%</b></p>
                        </div>","O_6_6_P",""
"","","","","","html-keyboard-response","120","487207","0.0-2.0-6.0-0.0-0.1","21","1","2022-04-02 12:12:44","c79472ad15d8b617a4d57d5bf56a810f","110.23.86.169","Mozilla/5.0 (Macintosh; Intel Mac OS X 10_15_7) AppleWebKit/537.36 (KHTML, like Gecko) Chrome/98.0.4758.109 Safari/537.36","Macintosh","Chrome","98.0.4758.109","OS X","10_15_7","null","null","","","<p style=""font-size:64px;"">+</p>","O_6_6_P",""
"","","","","","html-keyboard-response","121","488461","0.0-2.0-6.0-0.0-1.1","21","1","2022-04-02 12:12:44","c79472ad15d8b617a4d57d5bf56a810f","110.23.86.169","Mozilla/5.0 (Macintosh; Intel Mac OS X 10_15_7) AppleWebKit/537.36 (KHTML, like Gecko) Chrome/98.0.4758.109 Safari/537.36","Macintosh","Chrome","98.0.4758.109","OS X","10_15_7","null","null","","","
                        <div class=orange>
                        <div class=""centered"">
                            <p style=""font-size: 24px""><b>54%</b></p>
                        </div>","O_6_6_P",""
"","","","","","html-keyboard-response","122","488867","0.0-2.0-6.0-0.0-0.2","21","1","2022-04-02 12:12:44","c79472ad15d8b617a4d57d5bf56a810f","110.23.86.169","Mozilla/5.0 (Macintosh; Intel Mac OS X 10_15_7) AppleWebKit/537.36 (KHTML, like Gecko) Chrome/98.0.4758.109 Safari/537.36","Macintosh","Chrome","98.0.4758.109","OS X","10_15_7","null","null","","","<p style=""font-size:64px;"">+</p>","O_6_6_P",""
"","","","","","html-keyboard-response","123","490120","0.0-2.0-6.0-0.0-1.2","21","1","2022-04-02 12:12:44","c79472ad15d8b617a4d57d5bf56a810f","110.23.86.169","Mozilla/5.0 (Macintosh; Intel Mac OS X 10_15_7) AppleWebKit/537.36 (KHTML, like Gecko) Chrome/98.0.4758.109 Safari/537.36","Macintosh","Chrome","98.0.4758.109","OS X","10_15_7","null","null","","","
                        <div class=pink>
                        <div class=""centered"">
                            <p style=""font-size: 24px""><b>52%</b></p>
                        </div>","O_6_6_P",""
"","","","","","html-keyboard-response","124","490525","0.0-2.0-6.0-0.0-0.3","21","1","2022-04-02 12:12:44","c79472ad15d8b617a4d57d5bf56a810f","110.23.86.169","Mozilla/5.0 (Macintosh; Intel Mac OS X 10_15_7) AppleWebKit/537.36 (KHTML, like Gecko) Chrome/98.0.4758.109 Safari/537.36","Macintosh","Chrome","98.0.4758.109","OS X","10_15_7","null","null","","","<p style=""font-size:64px;"">+</p>","O_6_6_P",""
"","","","","","html-keyboard-response","125","491779","0.0-2.0-6.0-0.0-1.3","21","1","2022-04-02 12:12:44","c79472ad15d8b617a4d57d5bf56a810f","110.23.86.169","Mozilla/5.0 (Macintosh; Intel Mac OS X 10_15_7) AppleWebKit/537.36 (KHTML, like Gecko) Chrome/98.0.4758.109 Safari/537.36","Macintosh","Chrome","98.0.4758.109","OS X","10_15_7","null","null","","","
                        <div class=orange>
                        <div class=""centered"">
                            <p style=""font-size: 24px""><b>55%</b></p>
                        </div>","O_6_6_P",""
"","","","","","html-keyboard-response","126","492180","0.0-2.0-6.0-0.0-0.4","21","1","2022-04-02 12:12:44","c79472ad15d8b617a4d57d5bf56a810f","110.23.86.169","Mozilla/5.0 (Macintosh; Intel Mac OS X 10_15_7) AppleWebKit/537.36 (KHTML, like Gecko) Chrome/98.0.4758.109 Safari/537.36","Macintosh","Chrome","98.0.4758.109","OS X","10_15_7","null","null","","","<p style=""font-size:64px;"">+</p>","O_6_6_P",""
"","","","","","html-keyboard-response","127","493432","0.0-2.0-6.0-0.0-1.4","21","1","2022-04-02 12:12:44","c79472ad15d8b617a4d57d5bf56a810f","110.23.86.169","Mozilla/5.0 (Macintosh; Intel Mac OS X 10_15_7) AppleWebKit/537.36 (KHTML, like Gecko) Chrome/98.0.4758.109 Safari/537.36","Macintosh","Chrome","98.0.4758.109","OS X","10_15_7","null","null","","","
                        <div class=pink>
                        <div class=""centered"">
                            <p style=""font-size: 24px""><b>53%</b></p>
                        </div>","O_6_6_P",""
"","","","","","html-keyboard-response","128","493837","0.0-2.0-6.0-0.0-0.5","21","1","2022-04-02 12:12:44","c79472ad15d8b617a4d57d5bf56a810f","110.23.86.169","Mozilla/5.0 (Macintosh; Intel Mac OS X 10_15_7) AppleWebKit/537.36 (KHTML, like Gecko) Chrome/98.0.4758.109 Safari/537.36","Macintosh","Chrome","98.0.4758.109","OS X","10_15_7","null","null","","","<p style=""font-size:64px;"">+</p>","O_6_6_P",""
"","","","","","html-keyboard-response","129","495090","0.0-2.0-6.0-0.0-1.5","21","1","2022-04-02 12:12:44","c79472ad15d8b617a4d57d5bf56a810f","110.23.86.169","Mozilla/5.0 (Macintosh; Intel Mac OS X 10_15_7) AppleWebKit/537.36 (KHTML, like Gecko) Chrome/98.0.4758.109 Safari/537.36","Macintosh","Chrome","98.0.4758.109","OS X","10_15_7","null","null","","","
                        <div class=orange>
                        <div class=""centered"">
                            <p style=""font-size: 24px""><b>55%</b></p>
                        </div>","O_6_6_P",""
"","","","","","html-keyboard-response","130","495495","0.0-2.0-6.0-1.0-0.0","21","1","2022-04-02 12:12:44","c79472ad15d8b617a4d57d5bf56a810f","110.23.86.169","Mozilla/5.0 (Macintosh; Intel Mac OS X 10_15_7) AppleWebKit/537.36 (KHTML, like Gecko) Chrome/98.0.4758.109 Safari/537.36","Macintosh","Chrome","98.0.4758.109","OS X","10_15_7","null","null","","","<p style=""font-size:64px;"">+</p>","O_6_6_P",""
"","","","","","html-keyboard-response","131","496748","0.0-2.0-6.0-1.0-1.0","21","1","2022-04-02 12:12:44","c79472ad15d8b617a4d57d5bf56a810f","110.23.86.169","Mozilla/5.0 (Macintosh; Intel Mac OS X 10_15_7) AppleWebKit/537.36 (KHTML, like Gecko) Chrome/98.0.4758.109 Safari/537.36","Macintosh","Chrome","98.0.4758.109","OS X","10_15_7","null","null","","","
                        <div class=""pink"">
                        <div class=""centered"">
                            <p style=""font-size: 24px""><b>50%</b></p>
                        </div>","O_6_6_P",""
"","","","","","html-slider-response","132","499281","0.0-2.0-6.0-2.0","21","1","2022-04-02 12:12:44","c79472ad15d8b617a4d57d5bf56a810f","110.23.86.169","Mozilla/5.0 (Macintosh; Intel Mac OS X 10_15_7) AppleWebKit/537.36 (KHTML, like Gecko) Chrome/98.0.4758.109 Safari/537.36","Macintosh","Chrome","98.0.4758.109","OS X","10_15_7","2531.5","10","","","<div style=""width: 500px; height: 100px;""><p>Place your bid for more information.</p></div>","infoBid","44"
"","","","","","html-keyboard-response","133","499687","0.0-2.0-6.0-3.0-0.0","21","1","2022-04-02 12:12:44","c79472ad15d8b617a4d57d5bf56a810f","110.23.86.169","Mozilla/5.0 (Macintosh; Intel Mac OS X 10_15_7) AppleWebKit/537.36 (KHTML, like Gecko) Chrome/98.0.4758.109 Safari/537.36","Macintosh","Chrome","98.0.4758.109","OS X","10_15_7","null","null","","","<p style=""font-size:64px;"">+</p>","O_6_6_P",""
"","","","","","html-keyboard-response","134","500940","0.0-2.0-6.0-3.0-1.0","21","1","2022-04-02 12:12:44","c79472ad15d8b617a4d57d5bf56a810f","110.23.86.169","Mozilla/5.0 (Macintosh; Intel Mac OS X 10_15_7) AppleWebKit/537.36 (KHTML, like Gecko) Chrome/98.0.4758.109 Safari/537.36","Macintosh","Chrome","98.0.4758.109","OS X","10_15_7","null","null","","","<div class=""grey"">
                <div class=""centered"">
                    <p style=""font-size: 24px""><b>???</b></p>
                </div>","O_6_6_P",""
"","","","","","html-keyboard-response","135","505695","0.0-2.0-6.0-4.0-0.0","21","1","2022-04-02 12:12:44","c79472ad15d8b617a4d57d5bf56a810f","110.23.86.169","Mozilla/5.0 (Macintosh; Intel Mac OS X 10_15_7) AppleWebKit/537.36 (KHTML, like Gecko) Chrome/98.0.4758.109 Safari/537.36","Macintosh","Chrome","98.0.4758.109","OS X","10_15_7","4753.700000047684","f","","","
                      <div class=""row"">

                          <div class=""column"">
                              <div class=""orange""></div>
                              <div class=""leftChoiceText"">
                                  <p style=""font-size: 32px""><b>F</b></p>
                              </div>
                          </div>

                          <div class=""column"">
                              <div class=""pink""></div>
                              <div class=""rightChoiceText"">
                                  <p style=""font-size: 32px""><b>J</b></p>
                              </div>
                          </div>

                      </div>

                      <div class=""centeredTop"">
                          Which colour do you<br>
                          predict will win?
                      </div>","O_6_6_P",""
"","","","","","html-keyboard-response","136","507197","0.0-2.0-6.0-4.0-1.0","21","1","2022-04-02 12:12:44","c79472ad15d8b617a4d57d5bf56a810f","110.23.86.169","Mozilla/5.0 (Macintosh; Intel Mac OS X 10_15_7) AppleWebKit/537.36 (KHTML, like Gecko) Chrome/98.0.4758.109 Safari/537.36","Macintosh","Chrome","98.0.4758.109","OS X","10_15_7","null","null","","","<p style=""font-size:64px;"">+</p>","O_6_6_P",""
"","","","","","html-keyboard-response","137","507603","0.0-2.0-7.0-0.0-0.0","21","1","2022-04-02 12:12:44","c79472ad15d8b617a4d57d5bf56a810f","110.23.86.169","Mozilla/5.0 (Macintosh; Intel Mac OS X 10_15_7) AppleWebKit/537.36 (KHTML, like Gecko) Chrome/98.0.4758.109 Safari/537.36","Macintosh","Chrome","98.0.4758.109","OS X","10_15_7","null","null","","","<p style=""font-size:64px;"">+</p>","P_2_3_O",""
"","","","","","html-keyboard-response","138","508856","0.0-2.0-7.0-0.0-1.0","21","1","2022-04-02 12:12:44","c79472ad15d8b617a4d57d5bf56a810f","110.23.86.169","Mozilla/5.0 (Macintosh; Intel Mac OS X 10_15_7) AppleWebKit/537.36 (KHTML, like Gecko) Chrome/98.0.4758.109 Safari/537.36","Macintosh","Chrome","98.0.4758.109","OS X","10_15_7","null","null","","","
                        <div class=pink>
                        <div class=""centered"">
                            <p style=""font-size: 24px""><b>54%</b></p>
                        </div>","P_2_3_O",""
"","","","","","html-keyboard-response","139","509261","0.0-2.0-7.0-0.0-0.1","21","1","2022-04-02 12:12:44","c79472ad15d8b617a4d57d5bf56a810f","110.23.86.169","Mozilla/5.0 (Macintosh; Intel Mac OS X 10_15_7) AppleWebKit/537.36 (KHTML, like Gecko) Chrome/98.0.4758.109 Safari/537.36","Macintosh","Chrome","98.0.4758.109","OS X","10_15_7","null","null","","","<p style=""font-size:64px;"">+</p>","P_2_3_O",""
"","","","","","html-keyboard-response","140","510514","0.0-2.0-7.0-0.0-1.1","21","1","2022-04-02 12:12:44","c79472ad15d8b617a4d57d5bf56a810f","110.23.86.169","Mozilla/5.0 (Macintosh; Intel Mac OS X 10_15_7) AppleWebKit/537.36 (KHTML, like Gecko) Chrome/98.0.4758.109 Safari/537.36","Macintosh","Chrome","98.0.4758.109","OS X","10_15_7","null","null","","","
                        <div class=orange>
                        <div class=""centered"">
                            <p style=""font-size: 24px""><b>52%</b></p>
                        </div>","P_2_3_O",""
"","","","","","html-keyboard-response","141","510920","0.0-2.0-7.0-0.0-0.2","21","1","2022-04-02 12:12:44","c79472ad15d8b617a4d57d5bf56a810f","110.23.86.169","Mozilla/5.0 (Macintosh; Intel Mac OS X 10_15_7) AppleWebKit/537.36 (KHTML, like Gecko) Chrome/98.0.4758.109 Safari/537.36","Macintosh","Chrome","98.0.4758.109","OS X","10_15_7","null","null","","","<p style=""font-size:64px;"">+</p>","P_2_3_O",""
"","","","","","html-keyboard-response","142","512173","0.0-2.0-7.0-0.0-1.2","21","1","2022-04-02 12:12:44","c79472ad15d8b617a4d57d5bf56a810f","110.23.86.169","Mozilla/5.0 (Macintosh; Intel Mac OS X 10_15_7) AppleWebKit/537.36 (KHTML, like Gecko) Chrome/98.0.4758.109 Safari/537.36","Macintosh","Chrome","98.0.4758.109","OS X","10_15_7","null","null","","","
                        <div class=orange>
                        <div class=""centered"">
                            <p style=""font-size: 24px""><b>54%</b></p>
                        </div>","P_2_3_O",""
"","","","","","html-keyboard-response","143","512578","0.0-2.0-7.0-0.0-0.3","21","1","2022-04-02 12:12:44","c79472ad15d8b617a4d57d5bf56a810f","110.23.86.169","Mozilla/5.0 (Macintosh; Intel Mac OS X 10_15_7) AppleWebKit/537.36 (KHTML, like Gecko) Chrome/98.0.4758.109 Safari/537.36","Macintosh","Chrome","98.0.4758.109","OS X","10_15_7","null","null","","","<p style=""font-size:64px;"">+</p>","P_2_3_O",""
"","","","","","html-keyboard-response","144","513831","0.0-2.0-7.0-0.0-1.3","21","1","2022-04-02 12:12:44","c79472ad15d8b617a4d57d5bf56a810f","110.23.86.169","Mozilla/5.0 (Macintosh; Intel Mac OS X 10_15_7) AppleWebKit/537.36 (KHTML, like Gecko) Chrome/98.0.4758.109 Safari/537.36","Macintosh","Chrome","98.0.4758.109","OS X","10_15_7","null","null","","","
                        <div class=orange>
                        <div class=""centered"">
                            <p style=""font-size: 24px""><b>52%</b></p>
                        </div>","P_2_3_O",""
"","","","","","html-keyboard-response","145","514237","0.0-2.0-7.0-0.0-0.4","21","1","2022-04-02 12:12:44","c79472ad15d8b617a4d57d5bf56a810f","110.23.86.169","Mozilla/5.0 (Macintosh; Intel Mac OS X 10_15_7) AppleWebKit/537.36 (KHTML, like Gecko) Chrome/98.0.4758.109 Safari/537.36","Macintosh","Chrome","98.0.4758.109","OS X","10_15_7","null","null","","","<p style=""font-size:64px;"">+</p>","P_2_3_O",""
"","","","","","html-keyboard-response","146","515491","0.0-2.0-7.0-0.0-1.4","21","1","2022-04-02 12:12:44","c79472ad15d8b617a4d57d5bf56a810f","110.23.86.169","Mozilla/5.0 (Macintosh; Intel Mac OS X 10_15_7) AppleWebKit/537.36 (KHTML, like Gecko) Chrome/98.0.4758.109 Safari/537.36","Macintosh","Chrome","98.0.4758.109","OS X","10_15_7","null","null","","","
                        <div class=pink>
                        <div class=""centered"">
                            <p style=""font-size: 24px""><b>53%</b></p>
                        </div>","P_2_3_O",""
"","","","","","html-keyboard-response","147","515895","0.0-2.0-7.0-0.0-0.5","21","1","2022-04-02 12:12:44","c79472ad15d8b617a4d57d5bf56a810f","110.23.86.169","Mozilla/5.0 (Macintosh; Intel Mac OS X 10_15_7) AppleWebKit/537.36 (KHTML, like Gecko) Chrome/98.0.4758.109 Safari/537.36","Macintosh","Chrome","98.0.4758.109","OS X","10_15_7","null","null","","","<p style=""font-size:64px;"">+</p>","P_2_3_O",""
"","","","","","html-keyboard-response","148","517149","0.0-2.0-7.0-0.0-1.5","21","1","2022-04-02 12:12:44","c79472ad15d8b617a4d57d5bf56a810f","110.23.86.169","Mozilla/5.0 (Macintosh; Intel Mac OS X 10_15_7) AppleWebKit/537.36 (KHTML, like Gecko) Chrome/98.0.4758.109 Safari/537.36","Macintosh","Chrome","98.0.4758.109","OS X","10_15_7","null","null","","","
                        <div class=pink>
                        <div class=""centered"">
                            <p style=""font-size: 24px""><b>53%</b></p>
                        </div>","P_2_3_O",""
"","","","","","html-keyboard-response","149","517554","0.0-2.0-7.0-1.0-0.0","21","1","2022-04-02 12:12:44","c79472ad15d8b617a4d57d5bf56a810f","110.23.86.169","Mozilla/5.0 (Macintosh; Intel Mac OS X 10_15_7) AppleWebKit/537.36 (KHTML, like Gecko) Chrome/98.0.4758.109 Safari/537.36","Macintosh","Chrome","98.0.4758.109","OS X","10_15_7","null","null","","","<p style=""font-size:64px;"">+</p>","P_2_3_O",""
"","","","","","html-keyboard-response","150","518808","0.0-2.0-7.0-1.0-1.0","21","1","2022-04-02 12:12:44","c79472ad15d8b617a4d57d5bf56a810f","110.23.86.169","Mozilla/5.0 (Macintosh; Intel Mac OS X 10_15_7) AppleWebKit/537.36 (KHTML, like Gecko) Chrome/98.0.4758.109 Safari/537.36","Macintosh","Chrome","98.0.4758.109","OS X","10_15_7","null","null","","","
                        <div class=""orange"">
                        <div class=""centered"">
                            <p style=""font-size: 24px""><b>50%</b></p>
                        </div>","P_2_3_O",""
"","","","","","html-slider-response","151","523825","0.0-2.0-7.0-2.0","21","1","2022-04-02 12:12:44","c79472ad15d8b617a4d57d5bf56a810f","110.23.86.169","Mozilla/5.0 (Macintosh; Intel Mac OS X 10_15_7) AppleWebKit/537.36 (KHTML, like Gecko) Chrome/98.0.4758.109 Safari/537.36","Macintosh","Chrome","98.0.4758.109","OS X","10_15_7","5015.299999952316","20","","","<div style=""width: 500px; height: 100px;""><p>Place your bid for more information.</p></div>","infoBid","0"
"","","","","","html-keyboard-response","152","524227","0.0-2.0-7.0-3.0-0.0","21","1","2022-04-02 12:12:44","c79472ad15d8b617a4d57d5bf56a810f","110.23.86.169","Mozilla/5.0 (Macintosh; Intel Mac OS X 10_15_7) AppleWebKit/537.36 (KHTML, like Gecko) Chrome/98.0.4758.109 Safari/537.36","Macintosh","Chrome","98.0.4758.109","OS X","10_15_7","null","null","","","<p style=""font-size:64px;"">+</p>","P_2_3_O",""
"","","","","","html-keyboard-response","153","525483","0.0-2.0-7.0-3.0-1.0","21","1","2022-04-02 12:12:44","c79472ad15d8b617a4d57d5bf56a810f","110.23.86.169","Mozilla/5.0 (Macintosh; Intel Mac OS X 10_15_7) AppleWebKit/537.36 (KHTML, like Gecko) Chrome/98.0.4758.109 Safari/537.36","Macintosh","Chrome","98.0.4758.109","OS X","10_15_7","null","null","","","<div class=""grey"">
                <div class=""centered"">
                    <p style=""font-size: 24px""><b>???</b></p>
                </div>","P_2_3_O",""
"","","","","","html-keyboard-response","154","526747","0.0-2.0-7.0-4.0-0.0","21","1","2022-04-02 12:12:44","c79472ad15d8b617a4d57d5bf56a810f","110.23.86.169","Mozilla/5.0 (Macintosh; Intel Mac OS X 10_15_7) AppleWebKit/537.36 (KHTML, like Gecko) Chrome/98.0.4758.109 Safari/537.36","Macintosh","Chrome","98.0.4758.109","OS X","10_15_7","1262.9000000953674","f","","","
                      <div class=""row"">

                          <div class=""column"">
                              <div class=""orange""></div>
                              <div class=""leftChoiceText"">
                                  <p style=""font-size: 32px""><b>F</b></p>
                              </div>
                          </div>

                          <div class=""column"">
                              <div class=""pink""></div>
                              <div class=""rightChoiceText"">
                                  <p style=""font-size: 32px""><b>J</b></p>
                              </div>
                          </div>

                      </div>

                      <div class=""centeredTop"">
                          Which colour do you<br>
                          predict will win?
                      </div>","P_2_3_O",""
"","","","","","html-keyboard-response","155","528253","0.0-2.0-7.0-4.0-1.0","21","1","2022-04-02 12:12:44","c79472ad15d8b617a4d57d5bf56a810f","110.23.86.169","Mozilla/5.0 (Macintosh; Intel Mac OS X 10_15_7) AppleWebKit/537.36 (KHTML, like Gecko) Chrome/98.0.4758.109 Safari/537.36","Macintosh","Chrome","98.0.4758.109","OS X","10_15_7","null","null","","","<p style=""font-size:64px;"">+</p>","P_2_3_O",""
"","","","","","html-keyboard-response","156","532197","0.0-2.0-8.0","21","1","2022-04-02 12:12:44","c79472ad15d8b617a4d57d5bf56a810f","110.23.86.169","Mozilla/5.0 (Macintosh; Intel Mac OS X 10_15_7) AppleWebKit/537.36 (KHTML, like Gecko) Chrome/98.0.4758.109 Safari/537.36","Macintosh","Chrome","98.0.4758.109","OS X","10_15_7","3942.4000000953674"," ","","","This is the end of the practice trials.<br><br>
        Press spacebar to begin the experiment.","",""
"","","","","","html-keyboard-response","157","532600","0.0-2.0-9.0-0.0-0.0","21","1","2022-04-02 12:12:44","c79472ad15d8b617a4d57d5bf56a810f","110.23.86.169","Mozilla/5.0 (Macintosh; Intel Mac OS X 10_15_7) AppleWebKit/537.36 (KHTML, like Gecko) Chrome/98.0.4758.109 Safari/537.36","Macintosh","Chrome","98.0.4758.109","OS X","10_15_7","null","null","","","<p style=""font-size:64px;"">+</p>","P_4_3_O",""
"","","","","","html-keyboard-response","158","533853","0.0-2.0-9.0-0.0-1.0","21","1","2022-04-02 12:12:44","c79472ad15d8b617a4d57d5bf56a810f","110.23.86.169","Mozilla/5.0 (Macintosh; Intel Mac OS X 10_15_7) AppleWebKit/537.36 (KHTML, like Gecko) Chrome/98.0.4758.109 Safari/537.36","Macintosh","Chrome","98.0.4758.109","OS X","10_15_7","null","null","","","
                        <div class=orange>
                        <div class=""centered"">
                            <p style=""font-size: 24px""><b>53%</b></p>
                        </div>","P_4_3_O",""
"","","","","","html-keyboard-response","159","534259","0.0-2.0-9.0-0.0-0.1","21","1","2022-04-02 12:12:44","c79472ad15d8b617a4d57d5bf56a810f","110.23.86.169","Mozilla/5.0 (Macintosh; Intel Mac OS X 10_15_7) AppleWebKit/537.36 (KHTML, like Gecko) Chrome/98.0.4758.109 Safari/537.36","Macintosh","Chrome","98.0.4758.109","OS X","10_15_7","null","null","","","<p style=""font-size:64px;"">+</p>","P_4_3_O",""
"","","","","","html-keyboard-response","160","535512","0.0-2.0-9.0-0.0-1.1","21","1","2022-04-02 12:12:44","c79472ad15d8b617a4d57d5bf56a810f","110.23.86.169","Mozilla/5.0 (Macintosh; Intel Mac OS X 10_15_7) AppleWebKit/537.36 (KHTML, like Gecko) Chrome/98.0.4758.109 Safari/537.36","Macintosh","Chrome","98.0.4758.109","OS X","10_15_7","null","null","","","
                        <div class=pink>
                        <div class=""centered"">
                            <p style=""font-size: 24px""><b>55%</b></p>
                        </div>","P_4_3_O",""
"","","","","","html-keyboard-response","161","535917","0.0-2.0-9.0-0.0-0.2","21","1","2022-04-02 12:12:44","c79472ad15d8b617a4d57d5bf56a810f","110.23.86.169","Mozilla/5.0 (Macintosh; Intel Mac OS X 10_15_7) AppleWebKit/537.36 (KHTML, like Gecko) Chrome/98.0.4758.109 Safari/537.36","Macintosh","Chrome","98.0.4758.109","OS X","10_15_7","null","null","","","<p style=""font-size:64px;"">+</p>","P_4_3_O",""
"","","","","","html-keyboard-response","162","537170","0.0-2.0-9.0-0.0-1.2","21","1","2022-04-02 12:12:44","c79472ad15d8b617a4d57d5bf56a810f","110.23.86.169","Mozilla/5.0 (Macintosh; Intel Mac OS X 10_15_7) AppleWebKit/537.36 (KHTML, like Gecko) Chrome/98.0.4758.109 Safari/537.36","Macintosh","Chrome","98.0.4758.109","OS X","10_15_7","null","null","","","
                        <div class=orange>
                        <div class=""centered"">
                            <p style=""font-size: 24px""><b>52%</b></p>
                        </div>","P_4_3_O",""
"","","","","","html-keyboard-response","163","537575","0.0-2.0-9.0-0.0-0.3","21","1","2022-04-02 12:12:44","c79472ad15d8b617a4d57d5bf56a810f","110.23.86.169","Mozilla/5.0 (Macintosh; Intel Mac OS X 10_15_7) AppleWebKit/537.36 (KHTML, like Gecko) Chrome/98.0.4758.109 Safari/537.36","Macintosh","Chrome","98.0.4758.109","OS X","10_15_7","null","null","","","<p style=""font-size:64px;"">+</p>","P_4_3_O",""
"","","","","","html-keyboard-response","164","538829","0.0-2.0-9.0-0.0-1.3","21","1","2022-04-02 12:12:44","c79472ad15d8b617a4d57d5bf56a810f","110.23.86.169","Mozilla/5.0 (Macintosh; Intel Mac OS X 10_15_7) AppleWebKit/537.36 (KHTML, like Gecko) Chrome/98.0.4758.109 Safari/537.36","Macintosh","Chrome","98.0.4758.109","OS X","10_15_7","null","null","","","
                        <div class=pink>
                        <div class=""centered"">
                            <p style=""font-size: 24px""><b>53%</b></p>
                        </div>","P_4_3_O",""
"","","","","","html-keyboard-response","165","539231","0.0-2.0-9.0-0.0-0.4","21","1","2022-04-02 12:12:44","c79472ad15d8b617a4d57d5bf56a810f","110.23.86.169","Mozilla/5.0 (Macintosh; Intel Mac OS X 10_15_7) AppleWebKit/537.36 (KHTML, like Gecko) Chrome/98.0.4758.109 Safari/537.36","Macintosh","Chrome","98.0.4758.109","OS X","10_15_7","null","null","","","<p style=""font-size:64px;"">+</p>","P_4_3_O",""
"","","","","","html-keyboard-response","166","540483","0.0-2.0-9.0-0.0-1.4","21","1","2022-04-02 12:12:44","c79472ad15d8b617a4d57d5bf56a810f","110.23.86.169","Mozilla/5.0 (Macintosh; Intel Mac OS X 10_15_7) AppleWebKit/537.36 (KHTML, like Gecko) Chrome/98.0.4758.109 Safari/537.36","Macintosh","Chrome","98.0.4758.109","OS X","10_15_7","null","null","","","
                        <div class=orange>
                        <div class=""centered"">
                            <p style=""font-size: 24px""><b>52%</b></p>
                        </div>","P_4_3_O",""
"","","","","","html-keyboard-response","167","540888","0.0-2.0-9.0-0.0-0.5","21","1","2022-04-02 12:12:44","c79472ad15d8b617a4d57d5bf56a810f","110.23.86.169","Mozilla/5.0 (Macintosh; Intel Mac OS X 10_15_7) AppleWebKit/537.36 (KHTML, like Gecko) Chrome/98.0.4758.109 Safari/537.36","Macintosh","Chrome","98.0.4758.109","OS X","10_15_7","null","null","","","<p style=""font-size:64px;"">+</p>","P_4_3_O",""
"","","","","","html-keyboard-response","168","542141","0.0-2.0-9.0-0.0-1.5","21","1","2022-04-02 12:12:44","c79472ad15d8b617a4d57d5bf56a810f","110.23.86.169","Mozilla/5.0 (Macintosh; Intel Mac OS X 10_15_7) AppleWebKit/537.36 (KHTML, like Gecko) Chrome/98.0.4758.109 Safari/537.36","Macintosh","Chrome","98.0.4758.109","OS X","10_15_7","null","null","","","
                        <div class=pink>
                        <div class=""centered"">
                            <p style=""font-size: 24px""><b>53%</b></p>
                        </div>","P_4_3_O",""
"","","","","","html-keyboard-response","169","542546","0.0-2.0-9.0-1.0-0.0","21","1","2022-04-02 12:12:44","c79472ad15d8b617a4d57d5bf56a810f","110.23.86.169","Mozilla/5.0 (Macintosh; Intel Mac OS X 10_15_7) AppleWebKit/537.36 (KHTML, like Gecko) Chrome/98.0.4758.109 Safari/537.36","Macintosh","Chrome","98.0.4758.109","OS X","10_15_7","null","null","","","<p style=""font-size:64px;"">+</p>","P_4_3_O",""
"","","","","","html-keyboard-response","170","543800","0.0-2.0-9.0-1.0-1.0","21","1","2022-04-02 12:12:44","c79472ad15d8b617a4d57d5bf56a810f","110.23.86.169","Mozilla/5.0 (Macintosh; Intel Mac OS X 10_15_7) AppleWebKit/537.36 (KHTML, like Gecko) Chrome/98.0.4758.109 Safari/537.36","Macintosh","Chrome","98.0.4758.109","OS X","10_15_7","null","null","","","
                        <div class=""orange"">
                        <div class=""centered"">
                            <p style=""font-size: 24px""><b>50%</b></p>
                        </div>","P_4_3_O",""
"","","","","","html-slider-response","171","545536","0.0-2.0-9.0-2.0","21","1","2022-04-02 12:12:44","c79472ad15d8b617a4d57d5bf56a810f","110.23.86.169","Mozilla/5.0 (Macintosh; Intel Mac OS X 10_15_7) AppleWebKit/537.36 (KHTML, like Gecko) Chrome/98.0.4758.109 Safari/537.36","Macintosh","Chrome","98.0.4758.109","OS X","10_15_7","1734.7999999523163","9","","","<div style=""width: 500px; height: 100px;""><p>Place your bid for more information.</p></div>","infoBid","35"
"","","","","","html-keyboard-response","172","545944","0.0-2.0-9.0-3.0-0.0","21","1","2022-04-02 12:12:44","c79472ad15d8b617a4d57d5bf56a810f","110.23.86.169","Mozilla/5.0 (Macintosh; Intel Mac OS X 10_15_7) AppleWebKit/537.36 (KHTML, like Gecko) Chrome/98.0.4758.109 Safari/537.36","Macintosh","Chrome","98.0.4758.109","OS X","10_15_7","null","null","","","<p style=""font-size:64px;"">+</p>","P_4_3_O",""
"","","","","","html-keyboard-response","173","547197","0.0-2.0-9.0-3.0-1.0","21","1","2022-04-02 12:12:44","c79472ad15d8b617a4d57d5bf56a810f","110.23.86.169","Mozilla/5.0 (Macintosh; Intel Mac OS X 10_15_7) AppleWebKit/537.36 (KHTML, like Gecko) Chrome/98.0.4758.109 Safari/537.36","Macintosh","Chrome","98.0.4758.109","OS X","10_15_7","null","null","","","<div class=""grey"">
                <div class=""centered"">
                    <p style=""font-size: 24px""><b>???</b></p>
                </div>","P_4_3_O",""
"","","","","","html-keyboard-response","174","547876","0.0-2.0-9.0-4.0-0.0","21","1","2022-04-02 12:12:44","c79472ad15d8b617a4d57d5bf56a810f","110.23.86.169","Mozilla/5.0 (Macintosh; Intel Mac OS X 10_15_7) AppleWebKit/537.36 (KHTML, like Gecko) Chrome/98.0.4758.109 Safari/537.36","Macintosh","Chrome","98.0.4758.109","OS X","10_15_7","677.7000000476837","j","","","
                      <div class=""row"">

                          <div class=""column"">
                              <div class=""orange""></div>
                              <div class=""leftChoiceText"">
                                  <p style=""font-size: 32px""><b>F</b></p>
                              </div>
                          </div>

                          <div class=""column"">
                              <div class=""pink""></div>
                              <div class=""rightChoiceText"">
                                  <p style=""font-size: 32px""><b>J</b></p>
                              </div>
                          </div>

                      </div>

                      <div class=""centeredTop"">
                          Which colour do you<br>
                          predict will win?
                      </div>","P_4_3_O",""
"","","","","","html-keyboard-response","175","549378","0.0-2.0-9.0-4.0-1.0","21","1","2022-04-02 12:12:44","c79472ad15d8b617a4d57d5bf56a810f","110.23.86.169","Mozilla/5.0 (Macintosh; Intel Mac OS X 10_15_7) AppleWebKit/537.36 (KHTML, like Gecko) Chrome/98.0.4758.109 Safari/537.36","Macintosh","Chrome","98.0.4758.109","OS X","10_15_7","null","null","","","<p style=""font-size:64px;"">+</p>","P_4_3_O",""
"","","","","","html-keyboard-response","176","549784","0.0-2.0-10.0-0.0-0.0","21","1","2022-04-02 12:12:44","c79472ad15d8b617a4d57d5bf56a810f","110.23.86.169","Mozilla/5.0 (Macintosh; Intel Mac OS X 10_15_7) AppleWebKit/537.36 (KHTML, like Gecko) Chrome/98.0.4758.109 Safari/537.36","Macintosh","Chrome","98.0.4758.109","OS X","10_15_7","null","null","","","<p style=""font-size:64px;"">+</p>","P_2_1_O",""
"","","","","","html-keyboard-response","177","551037","0.0-2.0-10.0-0.0-1.0","21","1","2022-04-02 12:12:44","c79472ad15d8b617a4d57d5bf56a810f","110.23.86.169","Mozilla/5.0 (Macintosh; Intel Mac OS X 10_15_7) AppleWebKit/537.36 (KHTML, like Gecko) Chrome/98.0.4758.109 Safari/537.36","Macintosh","Chrome","98.0.4758.109","OS X","10_15_7","null","null","","","
                        <div class=orange>
                        <div class=""centered"">
                            <p style=""font-size: 24px""><b>51%</b></p>
                        </div>","P_2_1_O",""
"","","","","","html-keyboard-response","178","551443","0.0-2.0-10.0-0.0-0.1","21","1","2022-04-02 12:12:44","c79472ad15d8b617a4d57d5bf56a810f","110.23.86.169","Mozilla/5.0 (Macintosh; Intel Mac OS X 10_15_7) AppleWebKit/537.36 (KHTML, like Gecko) Chrome/98.0.4758.109 Safari/537.36","Macintosh","Chrome","98.0.4758.109","OS X","10_15_7","null","null","","","<p style=""font-size:64px;"">+</p>","P_2_1_O",""
"","","","","","html-keyboard-response","179","552696","0.0-2.0-10.0-0.0-1.1","21","1","2022-04-02 12:12:44","c79472ad15d8b617a4d57d5bf56a810f","110.23.86.169","Mozilla/5.0 (Macintosh; Intel Mac OS X 10_15_7) AppleWebKit/537.36 (KHTML, like Gecko) Chrome/98.0.4758.109 Safari/537.36","Macintosh","Chrome","98.0.4758.109","OS X","10_15_7","null","null","","","
                        <div class=pink>
                        <div class=""centered"">
                            <p style=""font-size: 24px""><b>54%</b></p>
                        </div>","P_2_1_O",""
"","","","","","html-keyboard-response","180","553100","0.0-2.0-10.0-0.0-0.2","21","1","2022-04-02 12:12:44","c79472ad15d8b617a4d57d5bf56a810f","110.23.86.169","Mozilla/5.0 (Macintosh; Intel Mac OS X 10_15_7) AppleWebKit/537.36 (KHTML, like Gecko) Chrome/98.0.4758.109 Safari/537.36","Macintosh","Chrome","98.0.4758.109","OS X","10_15_7","null","null","","","<p style=""font-size:64px;"">+</p>","P_2_1_O",""
"","","","","","html-keyboard-response","181","554355","0.0-2.0-10.0-0.0-1.2","21","1","2022-04-02 12:12:44","c79472ad15d8b617a4d57d5bf56a810f","110.23.86.169","Mozilla/5.0 (Macintosh; Intel Mac OS X 10_15_7) AppleWebKit/537.36 (KHTML, like Gecko) Chrome/98.0.4758.109 Safari/537.36","Macintosh","Chrome","98.0.4758.109","OS X","10_15_7","null","null","","","
                        <div class=pink>
                        <div class=""centered"">
                            <p style=""font-size: 24px""><b>54%</b></p>
                        </div>","P_2_1_O",""
"","","","","","html-keyboard-response","182","554760","0.0-2.0-10.0-0.0-0.3","21","1","2022-04-02 12:12:44","c79472ad15d8b617a4d57d5bf56a810f","110.23.86.169","Mozilla/5.0 (Macintosh; Intel Mac OS X 10_15_7) AppleWebKit/537.36 (KHTML, like Gecko) Chrome/98.0.4758.109 Safari/537.36","Macintosh","Chrome","98.0.4758.109","OS X","10_15_7","null","null","","","<p style=""font-size:64px;"">+</p>","P_2_1_O",""
"","","","","","html-keyboard-response","183","556014","0.0-2.0-10.0-0.0-1.3","21","1","2022-04-02 12:12:44","c79472ad15d8b617a4d57d5bf56a810f","110.23.86.169","Mozilla/5.0 (Macintosh; Intel Mac OS X 10_15_7) AppleWebKit/537.36 (KHTML, like Gecko) Chrome/98.0.4758.109 Safari/537.36","Macintosh","Chrome","98.0.4758.109","OS X","10_15_7","null","null","","","
                        <div class=orange>
                        <div class=""centered"">
                            <p style=""font-size: 24px""><b>55%</b></p>
                        </div>","P_2_1_O",""
"","","","","","html-keyboard-response","184","556415","0.0-2.0-10.0-0.0-0.4","21","1","2022-04-02 12:12:44","c79472ad15d8b617a4d57d5bf56a810f","110.23.86.169","Mozilla/5.0 (Macintosh; Intel Mac OS X 10_15_7) AppleWebKit/537.36 (KHTML, like Gecko) Chrome/98.0.4758.109 Safari/537.36","Macintosh","Chrome","98.0.4758.109","OS X","10_15_7","null","null","","","<p style=""font-size:64px;"">+</p>","P_2_1_O",""
"","","","","","html-keyboard-response","185","557670","0.0-2.0-10.0-0.0-1.4","21","1","2022-04-02 12:12:44","c79472ad15d8b617a4d57d5bf56a810f","110.23.86.169","Mozilla/5.0 (Macintosh; Intel Mac OS X 10_15_7) AppleWebKit/537.36 (KHTML, like Gecko) Chrome/98.0.4758.109 Safari/537.36","Macintosh","Chrome","98.0.4758.109","OS X","10_15_7","null","null","","","
                        <div class=pink>
                        <div class=""centered"">
                            <p style=""font-size: 24px""><b>52%</b></p>
                        </div>","P_2_1_O",""
"","","","","","html-keyboard-response","186","558072","0.0-2.0-10.0-0.0-0.5","21","1","2022-04-02 12:12:44","c79472ad15d8b617a4d57d5bf56a810f","110.23.86.169","Mozilla/5.0 (Macintosh; Intel Mac OS X 10_15_7) AppleWebKit/537.36 (KHTML, like Gecko) Chrome/98.0.4758.109 Safari/537.36","Macintosh","Chrome","98.0.4758.109","OS X","10_15_7","null","null","","","<p style=""font-size:64px;"">+</p>","P_2_1_O",""
"","","","","","html-keyboard-response","187","559325","0.0-2.0-10.0-0.0-1.5","21","1","2022-04-02 12:12:44","c79472ad15d8b617a4d57d5bf56a810f","110.23.86.169","Mozilla/5.0 (Macintosh; Intel Mac OS X 10_15_7) AppleWebKit/537.36 (KHTML, like Gecko) Chrome/98.0.4758.109 Safari/537.36","Macintosh","Chrome","98.0.4758.109","OS X","10_15_7","null","null","","","
                        <div class=orange>
                        <div class=""centered"">
                            <p style=""font-size: 24px""><b>52%</b></p>
                        </div>","P_2_1_O",""
"","","","","","html-keyboard-response","188","559730","0.0-2.0-10.0-1.0-0.0","21","1","2022-04-02 12:12:44","c79472ad15d8b617a4d57d5bf56a810f","110.23.86.169","Mozilla/5.0 (Macintosh; Intel Mac OS X 10_15_7) AppleWebKit/537.36 (KHTML, like Gecko) Chrome/98.0.4758.109 Safari/537.36","Macintosh","Chrome","98.0.4758.109","OS X","10_15_7","null","null","","","<p style=""font-size:64px;"">+</p>","P_2_1_O",""
"","","","","","html-keyboard-response","189","560982","0.0-2.0-10.0-1.0-1.0","21","1","2022-04-02 12:12:44","c79472ad15d8b617a4d57d5bf56a810f","110.23.86.169","Mozilla/5.0 (Macintosh; Intel Mac OS X 10_15_7) AppleWebKit/537.36 (KHTML, like Gecko) Chrome/98.0.4758.109 Safari/537.36","Macintosh","Chrome","98.0.4758.109","OS X","10_15_7","null","null","","","
                        <div class=""orange"">
                        <div class=""centered"">
                            <p style=""font-size: 24px""><b>50%</b></p>
                        </div>","P_2_1_O",""
"","","","","","html-slider-response","190","564794","0.0-2.0-10.0-2.0","21","1","2022-04-02 12:12:44","c79472ad15d8b617a4d57d5bf56a810f","110.23.86.169","Mozilla/5.0 (Macintosh; Intel Mac OS X 10_15_7) AppleWebKit/537.36 (KHTML, like Gecko) Chrome/98.0.4758.109 Safari/537.36","Macintosh","Chrome","98.0.4758.109","OS X","10_15_7","3811.300000190735","34","","","<div style=""width: 500px; height: 100px;""><p>Place your bid for more information.</p></div>","infoBid","5"
"","","","","","html-keyboard-response","191","565202","0.0-2.0-10.0-3.0-0.0","21","1","2022-04-02 12:12:44","c79472ad15d8b617a4d57d5bf56a810f","110.23.86.169","Mozilla/5.0 (Macintosh; Intel Mac OS X 10_15_7) AppleWebKit/537.36 (KHTML, like Gecko) Chrome/98.0.4758.109 Safari/537.36","Macintosh","Chrome","98.0.4758.109","OS X","10_15_7","null","null","","","<p style=""font-size:64px;"">+</p>","P_2_1_O",""
"","","","","","html-keyboard-response","192","566453","0.0-2.0-10.0-3.0-1.0","21","1","2022-04-02 12:12:44","c79472ad15d8b617a4d57d5bf56a810f","110.23.86.169","Mozilla/5.0 (Macintosh; Intel Mac OS X 10_15_7) AppleWebKit/537.36 (KHTML, like Gecko) Chrome/98.0.4758.109 Safari/537.36","Macintosh","Chrome","98.0.4758.109","OS X","10_15_7","null","null","","","<div class=pink>
