"success","timeout","failed_images","failed_audio","failed_video","trial_type","trial_index","time_elapsed","internal_node_id","run_id","condition","recorded_at","source_code_version","ip","user_agent","device","browser","browser_version","platform","platform_version","rt","response","question_order","view_history","stimulus","trial_name","slider_start"
"true","false","[]","[]","[]","preload","0","90","0.0-0.0","32","1","2022-04-04 04:10:58","c79472ad15d8b617a4d57d5bf56a810f","128.250.0.206","Mozilla/5.0 (Macintosh; Intel Mac OS X 10_13_6) AppleWebKit/537.36 (KHTML, like Gecko) Chrome/100.0.4896.60 Safari/537.36","Macintosh","Chrome","100.0.4896.60","OS X","10_13_6","","","","","","",""
"","","","","","survey-multi-choice","1","2346","0.0-1.0-0.0","32","1","2022-04-04 04:10:58","c79472ad15d8b617a4d57d5bf56a810f","128.250.0.206","Mozilla/5.0 (Macintosh; Intel Mac OS X 10_13_6) AppleWebKit/537.36 (KHTML, like Gecko) Chrome/100.0.4896.60 Safari/537.36","Macintosh","Chrome","100.0.4896.60","OS X","10_13_6","2252.9000000059605","{""Gender"":""Female""}","[0]","","","",""
"","","","","","survey-text","2","5738","0.0-1.0-1.0","32","1","2022-04-04 04:10:58","c79472ad15d8b617a4d57d5bf56a810f","128.250.0.206","Mozilla/5.0 (Macintosh; Intel Mac OS X 10_13_6) AppleWebKit/537.36 (KHTML, like Gecko) Chrome/100.0.4896.60 Safari/537.36","Macintosh","Chrome","100.0.4896.60","OS X","10_13_6","3388.399999976158","{""Age"":""25""}","","","","",""
"","","","","","instructions","3","131959","0.0-1.0-2.0","32","1","2022-04-04 04:10:58","c79472ad15d8b617a4d57d5bf56a810f","128.250.0.206","Mozilla/5.0 (Macintosh; Intel Mac OS X 10_13_6) AppleWebKit/537.36 (KHTML, like Gecko) Chrome/100.0.4896.60 Safari/537.36","Macintosh","Chrome","100.0.4896.60","OS X","10_13_6","126217.40000000596","","","[{""page_index"":0,""viewing_time"":2880.0999999940395},{""page_index"":1,""viewing_time"":5486.5},{""page_index"":2,""viewing_time"":34975.40000000596},{""page_index"":3,""viewing_time"":12367.200000017881},{""page_index"":4,""viewing_time"":5012.399999976158},{""page_index"":5,""viewing_time"":8817.90000000596},{""page_index"":6,""viewing_time"":5165.700000017881},{""page_index"":5,""viewing_time"":2428.5},{""page_index"":6,""viewing_time"":3128.2999999821186},{""page_index"":7,""viewing_time"":7231.4000000059605},{""page_index"":8,""viewing_time"":12885.300000011921},{""page_index"":9,""viewing_time"":3590.7999999821186},{""page_index"":10,""viewing_time"":2863.0999999940395},{""page_index"":11,""viewing_time"":13117.800000011921},{""page_index"":12,""viewing_time"":4084.300000011921},{""page_index"":13,""viewing_time"":2181.7999999821186}]","","",""
"","","","","","html-keyboard-response","4","132362","0.0-2.0-0.0-0.0-0.0","32","1","2022-04-04 04:10:58","c79472ad15d8b617a4d57d5bf56a810f","128.250.0.206","Mozilla/5.0 (Macintosh; Intel Mac OS X 10_13_6) AppleWebKit/537.36 (KHTML, like Gecko) Chrome/100.0.4896.60 Safari/537.36","Macintosh","Chrome","100.0.4896.60","OS X","10_13_6","null","null","","","<p style=""font-size:64px;"">+</p>","P_2_4_O",""
"","","","","","html-keyboard-response","5","133619","0.0-2.0-0.0-0.0-1.0","32","1","2022-04-04 04:10:58","c79472ad15d8b617a4d57d5bf56a810f","128.250.0.206","Mozilla/5.0 (Macintosh; Intel Mac OS X 10_13_6) AppleWebKit/537.36 (KHTML, like Gecko) Chrome/100.0.4896.60 Safari/537.36","Macintosh","Chrome","100.0.4896.60","OS X","10_13_6","null","null","","","
                        <div class=pink>
                        <div class=""centered"">
                            <p style=""font-size: 24px""><b>54%</b></p>
                        </div>","P_2_4_O",""
"","","","","","html-keyboard-response","6","134024","0.0-2.0-0.0-0.0-0.1","32","1","2022-04-04 04:10:58","c79472ad15d8b617a4d57d5bf56a810f","128.250.0.206","Mozilla/5.0 (Macintosh; Intel Mac OS X 10_13_6) AppleWebKit/537.36 (KHTML, like Gecko) Chrome/100.0.4896.60 Safari/537.36","Macintosh","Chrome","100.0.4896.60","OS X","10_13_6","null","null","","","<p style=""font-size:64px;"">+</p>","P_2_4_O",""
"","","","","","html-keyboard-response","7","135279","0.0-2.0-0.0-0.0-1.1","32","1","2022-04-04 04:10:58","c79472ad15d8b617a4d57d5bf56a810f","128.250.0.206","Mozilla/5.0 (Macintosh; Intel Mac OS X 10_13_6) AppleWebKit/537.36 (KHTML, like Gecko) Chrome/100.0.4896.60 Safari/537.36","Macintosh","Chrome","100.0.4896.60","OS X","10_13_6","null","null","","","
                        <div class=orange>
                        <div class=""centered"">
                            <p style=""font-size: 24px""><b>55%</b></p>
                        </div>","P_2_4_O",""
"","","","","","html-keyboard-response","8","135683","0.0-2.0-0.0-0.0-0.2","32","1","2022-04-04 04:10:58","c79472ad15d8b617a4d57d5bf56a810f","128.250.0.206","Mozilla/5.0 (Macintosh; Intel Mac OS X 10_13_6) AppleWebKit/537.36 (KHTML, like Gecko) Chrome/100.0.4896.60 Safari/537.36","Macintosh","Chrome","100.0.4896.60","OS X","10_13_6","null","null","","","<p style=""font-size:64px;"">+</p>","P_2_4_O",""
"","","","","","html-keyboard-response","9","136937","0.0-2.0-0.0-0.0-1.2","32","1","2022-04-04 04:10:58","c79472ad15d8b617a4d57d5bf56a810f","128.250.0.206","Mozilla/5.0 (Macintosh; Intel Mac OS X 10_13_6) AppleWebKit/537.36 (KHTML, like Gecko) Chrome/100.0.4896.60 Safari/537.36","Macintosh","Chrome","100.0.4896.60","OS X","10_13_6","null","null","","","
                        <div class=orange>
                        <div class=""centered"">
                            <p style=""font-size: 24px""><b>52%</b></p>
                        </div>","P_2_4_O",""
"","","","","","html-keyboard-response","10","137341","0.0-2.0-0.0-0.0-0.3","32","1","2022-04-04 04:10:58","c79472ad15d8b617a4d57d5bf56a810f","128.250.0.206","Mozilla/5.0 (Macintosh; Intel Mac OS X 10_13_6) AppleWebKit/537.36 (KHTML, like Gecko) Chrome/100.0.4896.60 Safari/537.36","Macintosh","Chrome","100.0.4896.60","OS X","10_13_6","null","null","","","<p style=""font-size:64px;"">+</p>","P_2_4_O",""
"","","","","","html-keyboard-response","11","138597","0.0-2.0-0.0-0.0-1.3","32","1","2022-04-04 04:10:58","c79472ad15d8b617a4d57d5bf56a810f","128.250.0.206","Mozilla/5.0 (Macintosh; Intel Mac OS X 10_13_6) AppleWebKit/537.36 (KHTML, like Gecko) Chrome/100.0.4896.60 Safari/537.36","Macintosh","Chrome","100.0.4896.60","OS X","10_13_6","null","null","","","
                        <div class=orange>
                        <div class=""centered"">
                            <p style=""font-size: 24px""><b>52%</b></p>
                        </div>","P_2_4_O",""
"","","","","","html-keyboard-response","12","139003","0.0-2.0-0.0-0.0-0.4","32","1","2022-04-04 04:10:58","c79472ad15d8b617a4d57d5bf56a810f","128.250.0.206","Mozilla/5.0 (Macintosh; Intel Mac OS X 10_13_6) AppleWebKit/537.36 (KHTML, like Gecko) Chrome/100.0.4896.60 Safari/537.36","Macintosh","Chrome","100.0.4896.60","OS X","10_13_6","null","null","","","<p style=""font-size:64px;"">+</p>","P_2_4_O",""
"","","","","","html-keyboard-response","13","140259","0.0-2.0-0.0-0.0-1.4","32","1","2022-04-04 04:10:58","c79472ad15d8b617a4d57d5bf56a810f","128.250.0.206","Mozilla/5.0 (Macintosh; Intel Mac OS X 10_13_6) AppleWebKit/537.36 (KHTML, like Gecko) Chrome/100.0.4896.60 Safari/537.36","Macintosh","Chrome","100.0.4896.60","OS X","10_13_6","null","null","","","
                        <div class=pink>
                        <div class=""centered"">
                            <p style=""font-size: 24px""><b>52%</b></p>
                        </div>","P_2_4_O",""
"","","","","","html-keyboard-response","14","140664","0.0-2.0-0.0-0.0-0.5","32","1","2022-04-04 04:10:58","c79472ad15d8b617a4d57d5bf56a810f","128.250.0.206","Mozilla/5.0 (Macintosh; Intel Mac OS X 10_13_6) AppleWebKit/537.36 (KHTML, like Gecko) Chrome/100.0.4896.60 Safari/537.36","Macintosh","Chrome","100.0.4896.60","OS X","10_13_6","null","null","","","<p style=""font-size:64px;"">+</p>","P_2_4_O",""
"","","","","","html-keyboard-response","15","141917","0.0-2.0-0.0-0.0-1.5","32","1","2022-04-04 04:10:58","c79472ad15d8b617a4d57d5bf56a810f","128.250.0.206","Mozilla/5.0 (Macintosh; Intel Mac OS X 10_13_6) AppleWebKit/537.36 (KHTML, like Gecko) Chrome/100.0.4896.60 Safari/537.36","Macintosh","Chrome","100.0.4896.60","OS X","10_13_6","null","null","","","
                        <div class=pink>
                        <div class=""centered"">
                            <p style=""font-size: 24px""><b>55%</b></p>
                        </div>","P_2_4_O",""
"","","","","","html-keyboard-response","16","142324","0.0-2.0-0.0-1.0-0.0","32","1","2022-04-04 04:10:58","c79472ad15d8b617a4d57d5bf56a810f","128.250.0.206","Mozilla/5.0 (Macintosh; Intel Mac OS X 10_13_6) AppleWebKit/537.36 (KHTML, like Gecko) Chrome/100.0.4896.60 Safari/537.36","Macintosh","Chrome","100.0.4896.60","OS X","10_13_6","null","null","","","<p style=""font-size:64px;"">+</p>","P_2_4_O",""
"","","","","","html-keyboard-response","17","143579","0.0-2.0-0.0-1.0-1.0","32","1","2022-04-04 04:10:58","c79472ad15d8b617a4d57d5bf56a810f","128.250.0.206","Mozilla/5.0 (Macintosh; Intel Mac OS X 10_13_6) AppleWebKit/537.36 (KHTML, like Gecko) Chrome/100.0.4896.60 Safari/537.36","Macintosh","Chrome","100.0.4896.60","OS X","10_13_6","null","null","","","
                        <div class=""orange"">
                        <div class=""centered"">
                            <p style=""font-size: 24px""><b>50%</b></p>
                        </div>","P_2_4_O",""
"","","","","","html-slider-response","18","148521","0.0-2.0-0.0-2.0","32","1","2022-04-04 04:10:58","c79472ad15d8b617a4d57d5bf56a810f","128.250.0.206","Mozilla/5.0 (Macintosh; Intel Mac OS X 10_13_6) AppleWebKit/537.36 (KHTML, like Gecko) Chrome/100.0.4896.60 Safari/537.36","Macintosh","Chrome","100.0.4896.60","OS X","10_13_6","4940.5999999940395","44","","","<div style=""width: 500px; height: 100px;""><p>Place your bid for more information.</p></div>","infoBid","28"
"","","","","","html-keyboard-response","19","148924","0.0-2.0-0.0-3.0-0.0","32","1","2022-04-04 04:10:58","c79472ad15d8b617a4d57d5bf56a810f","128.250.0.206","Mozilla/5.0 (Macintosh; Intel Mac OS X 10_13_6) AppleWebKit/537.36 (KHTML, like Gecko) Chrome/100.0.4896.60 Safari/537.36","Macintosh","Chrome","100.0.4896.60","OS X","10_13_6","null","null","","","<p style=""font-size:64px;"">+</p>","P_2_4_O",""
"","","","","","html-keyboard-response","20","150180","0.0-2.0-0.0-3.0-1.0","32","1","2022-04-04 04:10:58","c79472ad15d8b617a4d57d5bf56a810f","128.250.0.206","Mozilla/5.0 (Macintosh; Intel Mac OS X 10_13_6) AppleWebKit/537.36 (KHTML, like Gecko) Chrome/100.0.4896.60 Safari/537.36","Macintosh","Chrome","100.0.4896.60","OS X","10_13_6","null","null","","","<div class=pink>
                <div class=""centered"">
                    <p style=""font-size: 24px""><b>53%</b></p>
                </div>","P_2_4_O",""
"","","","","","html-keyboard-response","21","152460","0.0-2.0-0.0-4.0-0.0","32","1","2022-04-04 04:10:58","c79472ad15d8b617a4d57d5bf56a810f","128.250.0.206","Mozilla/5.0 (Macintosh; Intel Mac OS X 10_13_6) AppleWebKit/537.36 (KHTML, like Gecko) Chrome/100.0.4896.60 Safari/537.36","Macintosh","Chrome","100.0.4896.60","OS X","10_13_6","2278.9000000059605","j","","","
                      <div class=""row"">

                          <div class=""column"">
                              <div class=""orange""></div>
                              <div class=""leftChoiceText"">
                                  <p style=""font-size: 32px""><b>F</b></p>
                              </div>
                          </div>

                          <div class=""column"">
                              <div class=""pink""></div>
                              <div class=""rightChoiceText"">
                                  <p style=""font-size: 32px""><b>J</b></p>
                              </div>
                          </div>

                      </div>

                      <div class=""centeredTop"">
                          Which colour do you<br>
                          predict will win?
                      </div>","P_2_4_O",""
"","","","","","html-keyboard-response","22","153963","0.0-2.0-0.0-4.0-1.0","32","1","2022-04-04 04:10:58","c79472ad15d8b617a4d57d5bf56a810f","128.250.0.206","Mozilla/5.0 (Macintosh; Intel Mac OS X 10_13_6) AppleWebKit/537.36 (KHTML, like Gecko) Chrome/100.0.4896.60 Safari/537.36","Macintosh","Chrome","100.0.4896.60","OS X","10_13_6","null","null","","","<p style=""font-size:64px;"">+</p>","P_2_4_O",""
"","","","","","html-keyboard-response","23","154368","0.0-2.0-1.0-0.0-0.0","32","1","2022-04-04 04:10:58","c79472ad15d8b617a4d57d5bf56a810f","128.250.0.206","Mozilla/5.0 (Macintosh; Intel Mac OS X 10_13_6) AppleWebKit/537.36 (KHTML, like Gecko) Chrome/100.0.4896.60 Safari/537.36","Macintosh","Chrome","100.0.4896.60","OS X","10_13_6","null","null","","","<p style=""font-size:64px;"">+</p>","O_2_2_O",""
"","","","","","html-keyboard-response","24","155623","0.0-2.0-1.0-0.0-1.0","32","1","2022-04-04 04:10:58","c79472ad15d8b617a4d57d5bf56a810f","128.250.0.206","Mozilla/5.0 (Macintosh; Intel Mac OS X 10_13_6) AppleWebKit/537.36 (KHTML, like Gecko) Chrome/100.0.4896.60 Safari/537.36","Macintosh","Chrome","100.0.4896.60","OS X","10_13_6","null","null","","","
                        <div class=orange>
                        <div class=""centered"">
                            <p style=""font-size: 24px""><b>55%</b></p>
                        </div>","O_2_2_O",""
"","","","","","html-keyboard-response","25","156030","0.0-2.0-1.0-0.0-0.1","32","1","2022-04-04 04:10:58","c79472ad15d8b617a4d57d5bf56a810f","128.250.0.206","Mozilla/5.0 (Macintosh; Intel Mac OS X 10_13_6) AppleWebKit/537.36 (KHTML, like Gecko) Chrome/100.0.4896.60 Safari/537.36","Macintosh","Chrome","100.0.4896.60","OS X","10_13_6","null","null","","","<p style=""font-size:64px;"">+</p>","O_2_2_O",""
"","","","","","html-keyboard-response","26","157283","0.0-2.0-1.0-0.0-1.1","32","1","2022-04-04 04:10:58","c79472ad15d8b617a4d57d5bf56a810f","128.250.0.206","Mozilla/5.0 (Macintosh; Intel Mac OS X 10_13_6) AppleWebKit/537.36 (KHTML, like Gecko) Chrome/100.0.4896.60 Safari/537.36","Macintosh","Chrome","100.0.4896.60","OS X","10_13_6","null","null","","","
                        <div class=orange>
                        <div class=""centered"">
                            <p style=""font-size: 24px""><b>52%</b></p>
                        </div>","O_2_2_O",""
"","","","","","html-keyboard-response","27","157690","0.0-2.0-1.0-0.0-0.2","32","1","2022-04-04 04:10:58","c79472ad15d8b617a4d57d5bf56a810f","128.250.0.206","Mozilla/5.0 (Macintosh; Intel Mac OS X 10_13_6) AppleWebKit/537.36 (KHTML, like Gecko) Chrome/100.0.4896.60 Safari/537.36","Macintosh","Chrome","100.0.4896.60","OS X","10_13_6","null","null","","","<p style=""font-size:64px;"">+</p>","O_2_2_O",""
"","","","","","html-keyboard-response","28","158946","0.0-2.0-1.0-0.0-1.2","32","1","2022-04-04 04:10:58","c79472ad15d8b617a4d57d5bf56a810f","128.250.0.206","Mozilla/5.0 (Macintosh; Intel Mac OS X 10_13_6) AppleWebKit/537.36 (KHTML, like Gecko) Chrome/100.0.4896.60 Safari/537.36","Macintosh","Chrome","100.0.4896.60","OS X","10_13_6","null","null","","","
                        <div class=pink>
                        <div class=""centered"">
                            <p style=""font-size: 24px""><b>52%</b></p>
                        </div>","O_2_2_O",""
"","","","","","html-keyboard-response","29","159351","0.0-2.0-1.0-0.0-0.3","32","1","2022-04-04 04:10:58","c79472ad15d8b617a4d57d5bf56a810f","128.250.0.206","Mozilla/5.0 (Macintosh; Intel Mac OS X 10_13_6) AppleWebKit/537.36 (KHTML, like Gecko) Chrome/100.0.4896.60 Safari/537.36","Macintosh","Chrome","100.0.4896.60","OS X","10_13_6","null","null","","","<p style=""font-size:64px;"">+</p>","O_2_2_O",""
"","","","","","html-keyboard-response","30","160607","0.0-2.0-1.0-0.0-1.3","32","1","2022-04-04 04:10:58","c79472ad15d8b617a4d57d5bf56a810f","128.250.0.206","Mozilla/5.0 (Macintosh; Intel Mac OS X 10_13_6) AppleWebKit/537.36 (KHTML, like Gecko) Chrome/100.0.4896.60 Safari/537.36","Macintosh","Chrome","100.0.4896.60","OS X","10_13_6","null","null","","","
                        <div class=orange>
                        <div class=""centered"">
                            <p style=""font-size: 24px""><b>53%</b></p>
                        </div>","O_2_2_O",""
"","","","","","html-keyboard-response","31","161013","0.0-2.0-1.0-0.0-0.4","32","1","2022-04-04 04:10:58","c79472ad15d8b617a4d57d5bf56a810f","128.250.0.206","Mozilla/5.0 (Macintosh; Intel Mac OS X 10_13_6) AppleWebKit/537.36 (KHTML, like Gecko) Chrome/100.0.4896.60 Safari/537.36","Macintosh","Chrome","100.0.4896.60","OS X","10_13_6","null","null","","","<p style=""font-size:64px;"">+</p>","O_2_2_O",""
"","","","","","html-keyboard-response","32","162266","0.0-2.0-1.0-0.0-1.4","32","1","2022-04-04 04:10:58","c79472ad15d8b617a4d57d5bf56a810f","128.250.0.206","Mozilla/5.0 (Macintosh; Intel Mac OS X 10_13_6) AppleWebKit/537.36 (KHTML, like Gecko) Chrome/100.0.4896.60 Safari/537.36","Macintosh","Chrome","100.0.4896.60","OS X","10_13_6","null","null","","","
                        <div class=pink>
                        <div class=""centered"">
                            <p style=""font-size: 24px""><b>52%</b></p>
                        </div>","O_2_2_O",""
"","","","","","html-keyboard-response","33","162671","0.0-2.0-1.0-0.0-0.5","32","1","2022-04-04 04:10:58","c79472ad15d8b617a4d57d5bf56a810f","128.250.0.206","Mozilla/5.0 (Macintosh; Intel Mac OS X 10_13_6) AppleWebKit/537.36 (KHTML, like Gecko) Chrome/100.0.4896.60 Safari/537.36","Macintosh","Chrome","100.0.4896.60","OS X","10_13_6","null","null","","","<p style=""font-size:64px;"">+</p>","O_2_2_O",""
"","","","","","html-keyboard-response","34","163924","0.0-2.0-1.0-0.0-1.5","32","1","2022-04-04 04:10:58","c79472ad15d8b617a4d57d5bf56a810f","128.250.0.206","Mozilla/5.0 (Macintosh; Intel Mac OS X 10_13_6) AppleWebKit/537.36 (KHTML, like Gecko) Chrome/100.0.4896.60 Safari/537.36","Macintosh","Chrome","100.0.4896.60","OS X","10_13_6","null","null","","","
                        <div class=pink>
                        <div class=""centered"">
                            <p style=""font-size: 24px""><b>54%</b></p>
                        </div>","O_2_2_O",""
"","","","","","html-keyboard-response","35","164330","0.0-2.0-1.0-1.0-0.0","32","1","2022-04-04 04:10:58","c79472ad15d8b617a4d57d5bf56a810f","128.250.0.206","Mozilla/5.0 (Macintosh; Intel Mac OS X 10_13_6) AppleWebKit/537.36 (KHTML, like Gecko) Chrome/100.0.4896.60 Safari/537.36","Macintosh","Chrome","100.0.4896.60","OS X","10_13_6","null","null","","","<p style=""font-size:64px;"">+</p>","O_2_2_O",""
"","","","","","html-keyboard-response","36","165584","0.0-2.0-1.0-1.0-1.0","32","1","2022-04-04 04:10:58","c79472ad15d8b617a4d57d5bf56a810f","128.250.0.206","Mozilla/5.0 (Macintosh; Intel Mac OS X 10_13_6) AppleWebKit/537.36 (KHTML, like Gecko) Chrome/100.0.4896.60 Safari/537.36","Macintosh","Chrome","100.0.4896.60","OS X","10_13_6","null","null","","","
                        <div class=""orange"">
                        <div class=""centered"">
                            <p style=""font-size: 24px""><b>50%</b></p>
                        </div>","O_2_2_O",""
"","","","","","html-slider-response","37","168756","0.0-2.0-1.0-2.0","32","1","2022-04-04 04:10:58","c79472ad15d8b617a4d57d5bf56a810f","128.250.0.206","Mozilla/5.0 (Macintosh; Intel Mac OS X 10_13_6) AppleWebKit/537.36 (KHTML, like Gecko) Chrome/100.0.4896.60 Safari/537.36","Macintosh","Chrome","100.0.4896.60","OS X","10_13_6","3170.199999988079","14","","","<div style=""width: 500px; height: 100px;""><p>Place your bid for more information.</p></div>","infoBid","29"
"","","","","","html-keyboard-response","38","169161","0.0-2.0-1.0-3.0-0.0","32","1","2022-04-04 04:10:58","c79472ad15d8b617a4d57d5bf56a810f","128.250.0.206","Mozilla/5.0 (Macintosh; Intel Mac OS X 10_13_6) AppleWebKit/537.36 (KHTML, like Gecko) Chrome/100.0.4896.60 Safari/537.36","Macintosh","Chrome","100.0.4896.60","OS X","10_13_6","null","null","","","<p style=""font-size:64px;"">+</p>","O_2_2_O",""
"","","","","","html-keyboard-response","39","170415","0.0-2.0-1.0-3.0-1.0","32","1","2022-04-04 04:10:58","c79472ad15d8b617a4d57d5bf56a810f","128.250.0.206","Mozilla/5.0 (Macintosh; Intel Mac OS X 10_13_6) AppleWebKit/537.36 (KHTML, like Gecko) Chrome/100.0.4896.60 Safari/537.36","Macintosh","Chrome","100.0.4896.60","OS X","10_13_6","null","null","","","<div class=""grey"">
                <div class=""centered"">
                    <p style=""font-size: 24px""><b>???</b></p>
                </div>","O_2_2_O",""
"","","","","","html-keyboard-response","40","173550","0.0-2.0-1.0-4.0-0.0","32","1","2022-04-04 04:10:58","c79472ad15d8b617a4d57d5bf56a810f","128.250.0.206","Mozilla/5.0 (Macintosh; Intel Mac OS X 10_13_6) AppleWebKit/537.36 (KHTML, like Gecko) Chrome/100.0.4896.60 Safari/537.36","Macintosh","Chrome","100.0.4896.60","OS X","10_13_6","3134.2000000178814","j","","","
                      <div class=""row"">

                          <div class=""column"">
                              <div class=""orange""></div>
                              <div class=""leftChoiceText"">
                                  <p style=""font-size: 32px""><b>F</b></p>
                              </div>
                          </div>

                          <div class=""column"">
                              <div class=""pink""></div>
                              <div class=""rightChoiceText"">
                                  <p style=""font-size: 32px""><b>J</b></p>
                              </div>
                          </div>

                      </div>

                      <div class=""centeredTop"">
                          Which colour do you<br>
                          predict will win?
                      </div>","O_2_2_O",""
"","","","","","html-keyboard-response","41","175055","0.0-2.0-1.0-4.0-1.0","32","1","2022-04-04 04:10:58","c79472ad15d8b617a4d57d5bf56a810f","128.250.0.206","Mozilla/5.0 (Macintosh; Intel Mac OS X 10_13_6) AppleWebKit/537.36 (KHTML, like Gecko) Chrome/100.0.4896.60 Safari/537.36","Macintosh","Chrome","100.0.4896.60","OS X","10_13_6","null","null","","","<p style=""font-size:64px;"">+</p>","O_2_2_O",""
"","","","","","html-keyboard-response","42","175462","0.0-2.0-2.0-0.0-0.0","32","1","2022-04-04 04:10:58","c79472ad15d8b617a4d57d5bf56a810f","128.250.0.206","Mozilla/5.0 (Macintosh; Intel Mac OS X 10_13_6) AppleWebKit/537.36 (KHTML, like Gecko) Chrome/100.0.4896.60 Safari/537.36","Macintosh","Chrome","100.0.4896.60","OS X","10_13_6","null","null","","","<p style=""font-size:64px;"">+</p>","P_6_2_P",""
"","","","","","html-keyboard-response","43","176719","0.0-2.0-2.0-0.0-1.0","32","1","2022-04-04 04:10:58","c79472ad15d8b617a4d57d5bf56a810f","128.250.0.206","Mozilla/5.0 (Macintosh; Intel Mac OS X 10_13_6) AppleWebKit/537.36 (KHTML, like Gecko) Chrome/100.0.4896.60 Safari/537.36","Macintosh","Chrome","100.0.4896.60","OS X","10_13_6","null","null","","","
                        <div class=pink>
                        <div class=""centered"">
                            <p style=""font-size: 24px""><b>53%</b></p>
                        </div>","P_6_2_P",""
"","","","","","html-keyboard-response","44","177125","0.0-2.0-2.0-0.0-0.1","32","1","2022-04-04 04:10:58","c79472ad15d8b617a4d57d5bf56a810f","128.250.0.206","Mozilla/5.0 (Macintosh; Intel Mac OS X 10_13_6) AppleWebKit/537.36 (KHTML, like Gecko) Chrome/100.0.4896.60 Safari/537.36","Macintosh","Chrome","100.0.4896.60","OS X","10_13_6","null","null","","","<p style=""font-size:64px;"">+</p>","P_6_2_P",""
"","","","","","html-keyboard-response","45","178379","0.0-2.0-2.0-0.0-1.1","32","1","2022-04-04 04:10:58","c79472ad15d8b617a4d57d5bf56a810f","128.250.0.206","Mozilla/5.0 (Macintosh; Intel Mac OS X 10_13_6) AppleWebKit/537.36 (KHTML, like Gecko) Chrome/100.0.4896.60 Safari/537.36","Macintosh","Chrome","100.0.4896.60","OS X","10_13_6","null","null","","","
                        <div class=orange>
                        <div class=""centered"">
                            <p style=""font-size: 24px""><b>51%</b></p>
                        </div>","P_6_2_P",""
"","","","","","html-keyboard-response","46","178785","0.0-2.0-2.0-0.0-0.2","32","1","2022-04-04 04:10:58","c79472ad15d8b617a4d57d5bf56a810f","128.250.0.206","Mozilla/5.0 (Macintosh; Intel Mac OS X 10_13_6) AppleWebKit/537.36 (KHTML, like Gecko) Chrome/100.0.4896.60 Safari/537.36","Macintosh","Chrome","100.0.4896.60","OS X","10_13_6","null","null","","","<p style=""font-size:64px;"">+</p>","P_6_2_P",""
"","","","","","html-keyboard-response","47","180039","0.0-2.0-2.0-0.0-1.2","32","1","2022-04-04 04:10:58","c79472ad15d8b617a4d57d5bf56a810f","128.250.0.206","Mozilla/5.0 (Macintosh; Intel Mac OS X 10_13_6) AppleWebKit/537.36 (KHTML, like Gecko) Chrome/100.0.4896.60 Safari/537.36","Macintosh","Chrome","100.0.4896.60","OS X","10_13_6","null","null","","","
                        <div class=pink>
                        <div class=""centered"">
                            <p style=""font-size: 24px""><b>54%</b></p>
                        </div>","P_6_2_P",""
"","","","","","html-keyboard-response","48","180446","0.0-2.0-2.0-0.0-0.3","32","1","2022-04-04 04:10:58","c79472ad15d8b617a4d57d5bf56a810f","128.250.0.206","Mozilla/5.0 (Macintosh; Intel Mac OS X 10_13_6) AppleWebKit/537.36 (KHTML, like Gecko) Chrome/100.0.4896.60 Safari/537.36","Macintosh","Chrome","100.0.4896.60","OS X","10_13_6","null","null","","","<p style=""font-size:64px;"">+</p>","P_6_2_P",""
"","","","","","html-keyboard-response","49","181699","0.0-2.0-2.0-0.0-1.3","32","1","2022-04-04 04:10:58","c79472ad15d8b617a4d57d5bf56a810f","128.250.0.206","Mozilla/5.0 (Macintosh; Intel Mac OS X 10_13_6) AppleWebKit/537.36 (KHTML, like Gecko) Chrome/100.0.4896.60 Safari/537.36","Macintosh","Chrome","100.0.4896.60","OS X","10_13_6","null","null","","","
                        <div class=pink>
                        <div class=""centered"">
                            <p style=""font-size: 24px""><b>54%</b></p>
                        </div>","P_6_2_P",""
"","","","","","html-keyboard-response","50","182101","0.0-2.0-2.0-0.0-0.4","32","1","2022-04-04 04:10:58","c79472ad15d8b617a4d57d5bf56a810f","128.250.0.206","Mozilla/5.0 (Macintosh; Intel Mac OS X 10_13_6) AppleWebKit/537.36 (KHTML, like Gecko) Chrome/100.0.4896.60 Safari/537.36","Macintosh","Chrome","100.0.4896.60","OS X","10_13_6","null","null","","","<p style=""font-size:64px;"">+</p>","P_6_2_P",""
"","","","","","html-keyboard-response","51","183354","0.0-2.0-2.0-0.0-1.4","32","1","2022-04-04 04:10:58","c79472ad15d8b617a4d57d5bf56a810f","128.250.0.206","Mozilla/5.0 (Macintosh; Intel Mac OS X 10_13_6) AppleWebKit/537.36 (KHTML, like Gecko) Chrome/100.0.4896.60 Safari/537.36","Macintosh","Chrome","100.0.4896.60","OS X","10_13_6","null","null","","","
                        <div class=orange>
                        <div class=""centered"">
                            <p style=""font-size: 24px""><b>53%</b></p>
                        </div>","P_6_2_P",""
"","","","","","html-keyboard-response","52","183759","0.0-2.0-2.0-0.0-0.5","32","1","2022-04-04 04:10:58","c79472ad15d8b617a4d57d5bf56a810f","128.250.0.206","Mozilla/5.0 (Macintosh; Intel Mac OS X 10_13_6) AppleWebKit/537.36 (KHTML, like Gecko) Chrome/100.0.4896.60 Safari/537.36","Macintosh","Chrome","100.0.4896.60","OS X","10_13_6","null","null","","","<p style=""font-size:64px;"">+</p>","P_6_2_P",""
"","","","","","html-keyboard-response","53","185014","0.0-2.0-2.0-0.0-1.5","32","1","2022-04-04 04:10:58","c79472ad15d8b617a4d57d5bf56a810f","128.250.0.206","Mozilla/5.0 (Macintosh; Intel Mac OS X 10_13_6) AppleWebKit/537.36 (KHTML, like Gecko) Chrome/100.0.4896.60 Safari/537.36","Macintosh","Chrome","100.0.4896.60","OS X","10_13_6","null","null","","","
                        <div class=orange>
                        <div class=""centered"">
                            <p style=""font-size: 24px""><b>51%</b></p>
                        </div>","P_6_2_P",""
"","","","","","html-keyboard-response","54","185421","0.0-2.0-2.0-1.0-0.0","32","1","2022-04-04 04:10:58","c79472ad15d8b617a4d57d5bf56a810f","128.250.0.206","Mozilla/5.0 (Macintosh; Intel Mac OS X 10_13_6) AppleWebKit/537.36 (KHTML, like Gecko) Chrome/100.0.4896.60 Safari/537.36","Macintosh","Chrome","100.0.4896.60","OS X","10_13_6","null","null","","","<p style=""font-size:64px;"">+</p>","P_6_2_P",""
"","","","","","html-keyboard-response","55","186674","0.0-2.0-2.0-1.0-1.0","32","1","2022-04-04 04:10:58","c79472ad15d8b617a4d57d5bf56a810f","128.250.0.206","Mozilla/5.0 (Macintosh; Intel Mac OS X 10_13_6) AppleWebKit/537.36 (KHTML, like Gecko) Chrome/100.0.4896.60 Safari/537.36","Macintosh","Chrome","100.0.4896.60","OS X","10_13_6","null","null","","","
                        <div class=""pink"">
                        <div class=""centered"">
                            <p style=""font-size: 24px""><b>50%</b></p>
                        </div>","P_6_2_P",""
"","","","","","html-slider-response","56","190007","0.0-2.0-2.0-2.0","32","1","2022-04-04 04:10:58","c79472ad15d8b617a4d57d5bf56a810f","128.250.0.206","Mozilla/5.0 (Macintosh; Intel Mac OS X 10_13_6) AppleWebKit/537.36 (KHTML, like Gecko) Chrome/100.0.4896.60 Safari/537.36","Macintosh","Chrome","100.0.4896.60","OS X","10_13_6","3330.9000000059605","28","","","<div style=""width: 500px; height: 100px;""><p>Place your bid for more information.</p></div>","infoBid","43"
"","","","","","html-keyboard-response","57","190413","0.0-2.0-2.0-3.0-0.0","32","1","2022-04-04 04:10:58","c79472ad15d8b617a4d57d5bf56a810f","128.250.0.206","Mozilla/5.0 (Macintosh; Intel Mac OS X 10_13_6) AppleWebKit/537.36 (KHTML, like Gecko) Chrome/100.0.4896.60 Safari/537.36","Macintosh","Chrome","100.0.4896.60","OS X","10_13_6","null","null","","","<p style=""font-size:64px;"">+</p>","P_6_2_P",""
"","","","","","html-keyboard-response","58","191667","0.0-2.0-2.0-3.0-1.0","32","1","2022-04-04 04:10:58","c79472ad15d8b617a4d57d5bf56a810f","128.250.0.206","Mozilla/5.0 (Macintosh; Intel Mac OS X 10_13_6) AppleWebKit/537.36 (KHTML, like Gecko) Chrome/100.0.4896.60 Safari/537.36","Macintosh","Chrome","100.0.4896.60","OS X","10_13_6","null","null","","","<div class=pink>
                <div class=""centered"">
                    <p style=""font-size: 24px""><b>53%</b></p>
                </div>","P_6_2_P",""
"","","","","","html-keyboard-response","59","193135","0.0-2.0-2.0-4.0-0.0","32","1","2022-04-04 04:10:58","c79472ad15d8b617a4d57d5bf56a810f","128.250.0.206","Mozilla/5.0 (Macintosh; Intel Mac OS X 10_13_6) AppleWebKit/537.36 (KHTML, like Gecko) Chrome/100.0.4896.60 Safari/537.36","Macintosh","Chrome","100.0.4896.60","OS X","10_13_6","1465.300000011921","j","","","
                      <div class=""row"">

                          <div class=""column"">
                              <div class=""orange""></div>
                              <div class=""leftChoiceText"">
                                  <p style=""font-size: 32px""><b>F</b></p>
                              </div>
                          </div>

                          <div class=""column"">
                              <div class=""pink""></div>
                              <div class=""rightChoiceText"">
                                  <p style=""font-size: 32px""><b>J</b></p>
                              </div>
                          </div>

                      </div>

                      <div class=""centeredTop"">
                          Which colour do you<br>
                          predict will win?
                      </div>","P_6_2_P",""
"","","","","","html-keyboard-response","60","194639","0.0-2.0-2.0-4.0-1.0","32","1","2022-04-04 04:10:58","c79472ad15d8b617a4d57d5bf56a810f","128.250.0.206","Mozilla/5.0 (Macintosh; Intel Mac OS X 10_13_6) AppleWebKit/537.36 (KHTML, like Gecko) Chrome/100.0.4896.60 Safari/537.36","Macintosh","Chrome","100.0.4896.60","OS X","10_13_6","null","null","","","<p style=""font-size:64px;"">+</p>","P_6_2_P",""
"","","","","","html-keyboard-response","61","195045","0.0-2.0-3.0-0.0-0.0","32","1","2022-04-04 04:10:58","c79472ad15d8b617a4d57d5bf56a810f","128.250.0.206","Mozilla/5.0 (Macintosh; Intel Mac OS X 10_13_6) AppleWebKit/537.36 (KHTML, like Gecko) Chrome/100.0.4896.60 Safari/537.36","Macintosh","Chrome","100.0.4896.60","OS X","10_13_6","null","null","","","<p style=""font-size:64px;"">+</p>","O_2_1_P",""
"","","","","","html-keyboard-response","62","196299","0.0-2.0-3.0-0.0-1.0","32","1","2022-04-04 04:10:58","c79472ad15d8b617a4d57d5bf56a810f","128.250.0.206","Mozilla/5.0 (Macintosh; Intel Mac OS X 10_13_6) AppleWebKit/537.36 (KHTML, like Gecko) Chrome/100.0.4896.60 Safari/537.36","Macintosh","Chrome","100.0.4896.60","OS X","10_13_6","null","null","","","
                        <div class=orange>
                        <div class=""centered"">
                            <p style=""font-size: 24px""><b>54%</b></p>
                        </div>","O_2_1_P",""
"","","","","","html-keyboard-response","63","196705","0.0-2.0-3.0-0.0-0.1","32","1","2022-04-04 04:10:58","c79472ad15d8b617a4d57d5bf56a810f","128.250.0.206","Mozilla/5.0 (Macintosh; Intel Mac OS X 10_13_6) AppleWebKit/537.36 (KHTML, like Gecko) Chrome/100.0.4896.60 Safari/537.36","Macintosh","Chrome","100.0.4896.60","OS X","10_13_6","null","null","","","<p style=""font-size:64px;"">+</p>","O_2_1_P",""
"","","","","","html-keyboard-response","64","197960","0.0-2.0-3.0-0.0-1.1","32","1","2022-04-04 04:10:58","c79472ad15d8b617a4d57d5bf56a810f","128.250.0.206","Mozilla/5.0 (Macintosh; Intel Mac OS X 10_13_6) AppleWebKit/537.36 (KHTML, like Gecko) Chrome/100.0.4896.60 Safari/537.36","Macintosh","Chrome","100.0.4896.60","OS X","10_13_6","null","null","","","
                        <div class=pink>
                        <div class=""centered"">
                            <p style=""font-size: 24px""><b>51%</b></p>
                        </div>","O_2_1_P",""
"","","","","","html-keyboard-response","65","198366","0.0-2.0-3.0-0.0-0.2","32","1","2022-04-04 04:10:58","c79472ad15d8b617a4d57d5bf56a810f","128.250.0.206","Mozilla/5.0 (Macintosh; Intel Mac OS X 10_13_6) AppleWebKit/537.36 (KHTML, like Gecko) Chrome/100.0.4896.60 Safari/537.36","Macintosh","Chrome","100.0.4896.60","OS X","10_13_6","null","null","","","<p style=""font-size:64px;"">+</p>","O_2_1_P",""
"","","","","","html-keyboard-response","66","199619","0.0-2.0-3.0-0.0-1.2","32","1","2022-04-04 04:10:58","c79472ad15d8b617a4d57d5bf56a810f","128.250.0.206","Mozilla/5.0 (Macintosh; Intel Mac OS X 10_13_6) AppleWebKit/537.36 (KHTML, like Gecko) Chrome/100.0.4896.60 Safari/537.36","Macintosh","Chrome","100.0.4896.60","OS X","10_13_6","null","null","","","
                        <div class=pink>
                        <div class=""centered"">
                            <p style=""font-size: 24px""><b>52%</b></p>
                        </div>","O_2_1_P",""
"","","","","","html-keyboard-response","67","200024","0.0-2.0-3.0-0.0-0.3","32","1","2022-04-04 04:10:58","c79472ad15d8b617a4d57d5bf56a810f","128.250.0.206","Mozilla/5.0 (Macintosh; Intel Mac OS X 10_13_6) AppleWebKit/537.36 (KHTML, like Gecko) Chrome/100.0.4896.60 Safari/537.36","Macintosh","Chrome","100.0.4896.60","OS X","10_13_6","null","null","","","<p style=""font-size:64px;"">+</p>","O_2_1_P",""
"","","","","","html-keyboard-response","68","201280","0.0-2.0-3.0-0.0-1.3","32","1","2022-04-04 04:10:58","c79472ad15d8b617a4d57d5bf56a810f","128.250.0.206","Mozilla/5.0 (Macintosh; Intel Mac OS X 10_13_6) AppleWebKit/537.36 (KHTML, like Gecko) Chrome/100.0.4896.60 Safari/537.36","Macintosh","Chrome","100.0.4896.60","OS X","10_13_6","null","null","","","
                        <div class=pink>
                        <div class=""centered"">
                            <p style=""font-size: 24px""><b>55%</b></p>
                        </div>","O_2_1_P",""
"","","","","","html-keyboard-response","69","201683","0.0-2.0-3.0-0.0-0.4","32","1","2022-04-04 04:10:58","c79472ad15d8b617a4d57d5bf56a810f","128.250.0.206","Mozilla/5.0 (Macintosh; Intel Mac OS X 10_13_6) AppleWebKit/537.36 (KHTML, like Gecko) Chrome/100.0.4896.60 Safari/537.36","Macintosh","Chrome","100.0.4896.60","OS X","10_13_6","null","null","","","<p style=""font-size:64px;"">+</p>","O_2_1_P",""
"","","","","","html-keyboard-response","70","202936","0.0-2.0-3.0-0.0-1.4","32","1","2022-04-04 04:10:58","c79472ad15d8b617a4d57d5bf56a810f","128.250.0.206","Mozilla/5.0 (Macintosh; Intel Mac OS X 10_13_6) AppleWebKit/537.36 (KHTML, like Gecko) Chrome/100.0.4896.60 Safari/537.36","Macintosh","Chrome","100.0.4896.60","OS X","10_13_6","null","null","","","
                        <div class=orange>
                        <div class=""centered"">
                            <p style=""font-size: 24px""><b>54%</b></p>
                        </div>","O_2_1_P",""
"","","","","","html-keyboard-response","71","203341","0.0-2.0-3.0-0.0-0.5","32","1","2022-04-04 04:10:58","c79472ad15d8b617a4d57d5bf56a810f","128.250.0.206","Mozilla/5.0 (Macintosh; Intel Mac OS X 10_13_6) AppleWebKit/537.36 (KHTML, like Gecko) Chrome/100.0.4896.60 Safari/537.36","Macintosh","Chrome","100.0.4896.60","OS X","10_13_6","null","null","","","<p style=""font-size:64px;"">+</p>","O_2_1_P",""
"","","","","","html-keyboard-response","72","204595","0.0-2.0-3.0-0.0-1.5","32","1","2022-04-04 04:10:58","c79472ad15d8b617a4d57d5bf56a810f","128.250.0.206","Mozilla/5.0 (Macintosh; Intel Mac OS X 10_13_6) AppleWebKit/537.36 (KHTML, like Gecko) Chrome/100.0.4896.60 Safari/537.36","Macintosh","Chrome","100.0.4896.60","OS X","10_13_6","null","null","","","
                        <div class=orange>
                        <div class=""centered"">
                            <p style=""font-size: 24px""><b>52%</b></p>
                        </div>","O_2_1_P",""
"","","","","","html-keyboard-response","73","205001","0.0-2.0-3.0-1.0-0.0","32","1","2022-04-04 04:10:58","c79472ad15d8b617a4d57d5bf56a810f","128.250.0.206","Mozilla/5.0 (Macintosh; Intel Mac OS X 10_13_6) AppleWebKit/537.36 (KHTML, like Gecko) Chrome/100.0.4896.60 Safari/537.36","Macintosh","Chrome","100.0.4896.60","OS X","10_13_6","null","null","","","<p style=""font-size:64px;"">+</p>","O_2_1_P",""
"","","","","","html-keyboard-response","74","206257","0.0-2.0-3.0-1.0-1.0","32","1","2022-04-04 04:10:58","c79472ad15d8b617a4d57d5bf56a810f","128.250.0.206","Mozilla/5.0 (Macintosh; Intel Mac OS X 10_13_6) AppleWebKit/537.36 (KHTML, like Gecko) Chrome/100.0.4896.60 Safari/537.36","Macintosh","Chrome","100.0.4896.60","OS X","10_13_6","null","null","","","
                        <div class=""pink"">
                        <div class=""centered"">
                            <p style=""font-size: 24px""><b>50%</b></p>
                        </div>","O_2_1_P",""
"","","","","","html-slider-response","75","210330","0.0-2.0-3.0-2.0","32","1","2022-04-04 04:10:58","c79472ad15d8b617a4d57d5bf56a810f","128.250.0.206","Mozilla/5.0 (Macintosh; Intel Mac OS X 10_13_6) AppleWebKit/537.36 (KHTML, like Gecko) Chrome/100.0.4896.60 Safari/537.36","Macintosh","Chrome","100.0.4896.60","OS X","10_13_6","4071.5999999940395","16","","","<div style=""width: 500px; height: 100px;""><p>Place your bid for more information.</p></div>","infoBid","28"
"","","","","","html-keyboard-response","76","210736","0.0-2.0-3.0-3.0-0.0","32","1","2022-04-04 04:10:58","c79472ad15d8b617a4d57d5bf56a810f","128.250.0.206","Mozilla/5.0 (Macintosh; Intel Mac OS X 10_13_6) AppleWebKit/537.36 (KHTML, like Gecko) Chrome/100.0.4896.60 Safari/537.36","Macintosh","Chrome","100.0.4896.60","OS X","10_13_6","null","null","","","<p style=""font-size:64px;"">+</p>","O_2_1_P",""
"","","","","","html-keyboard-response","77","211991","0.0-2.0-3.0-3.0-1.0","32","1","2022-04-04 04:10:58","c79472ad15d8b617a4d57d5bf56a810f","128.250.0.206","Mozilla/5.0 (Macintosh; Intel Mac OS X 10_13_6) AppleWebKit/537.36 (KHTML, like Gecko) Chrome/100.0.4896.60 Safari/537.36","Macintosh","Chrome","100.0.4896.60","OS X","10_13_6","null","null","","","<div class=""grey"">
                <div class=""centered"">
                    <p style=""font-size: 24px""><b>???</b></p>
                </div>","O_2_1_P",""
"","","","","","html-keyboard-response","78","213206","0.0-2.0-3.0-4.0-0.0","32","1","2022-04-04 04:10:58","c79472ad15d8b617a4d57d5bf56a810f","128.250.0.206","Mozilla/5.0 (Macintosh; Intel Mac OS X 10_13_6) AppleWebKit/537.36 (KHTML, like Gecko) Chrome/100.0.4896.60 Safari/537.36","Macintosh","Chrome","100.0.4896.60","OS X","10_13_6","1214","j","","","
                      <div class=""row"">

                          <div class=""column"">
                              <div class=""orange""></div>
                              <div class=""leftChoiceText"">
                                  <p style=""font-size: 32px""><b>F</b></p>
                              </div>
                          </div>

                          <div class=""column"">
                              <div class=""pink""></div>
                              <div class=""rightChoiceText"">
                                  <p style=""font-size: 32px""><b>J</b></p>
                              </div>
                          </div>

                      </div>

                      <div class=""centeredTop"">
                          Which colour do you<br>
                          predict will win?
                      </div>","O_2_1_P",""
"","","","","","html-keyboard-response","79","214708","0.0-2.0-3.0-4.0-1.0","32","1","2022-04-04 04:10:58","c79472ad15d8b617a4d57d5bf56a810f","128.250.0.206","Mozilla/5.0 (Macintosh; Intel Mac OS X 10_13_6) AppleWebKit/537.36 (KHTML, like Gecko) Chrome/100.0.4896.60 Safari/537.36","Macintosh","Chrome","100.0.4896.60","OS X","10_13_6","null","null","","","<p style=""font-size:64px;"">+</p>","O_2_1_P",""
"","","","","","html-keyboard-response","80","215113","0.0-2.0-4.0-0.0-0.0","32","1","2022-04-04 04:10:58","c79472ad15d8b617a4d57d5bf56a810f","128.250.0.206","Mozilla/5.0 (Macintosh; Intel Mac OS X 10_13_6) AppleWebKit/537.36 (KHTML, like Gecko) Chrome/100.0.4896.60 Safari/537.36","Macintosh","Chrome","100.0.4896.60","OS X","10_13_6","null","null","","","<p style=""font-size:64px;"">+</p>","O_2_5_O",""
"","","","","","html-keyboard-response","81","216369","0.0-2.0-4.0-0.0-1.0","32","1","2022-04-04 04:10:58","c79472ad15d8b617a4d57d5bf56a810f","128.250.0.206","Mozilla/5.0 (Macintosh; Intel Mac OS X 10_13_6) AppleWebKit/537.36 (KHTML, like Gecko) Chrome/100.0.4896.60 Safari/537.36","Macintosh","Chrome","100.0.4896.60","OS X","10_13_6","null","null","","","
                        <div class=pink>
                        <div class=""centered"">
                            <p style=""font-size: 24px""><b>52%</b></p>
                        </div>","O_2_5_O",""
"","","","","","html-keyboard-response","82","216775","0.0-2.0-4.0-0.0-0.1","32","1","2022-04-04 04:10:58","c79472ad15d8b617a4d57d5bf56a810f","128.250.0.206","Mozilla/5.0 (Macintosh; Intel Mac OS X 10_13_6) AppleWebKit/537.36 (KHTML, like Gecko) Chrome/100.0.4896.60 Safari/537.36","Macintosh","Chrome","100.0.4896.60","OS X","10_13_6","null","null","","","<p style=""font-size:64px;"">+</p>","O_2_5_O",""
"","","","","","html-keyboard-response","83","218030","0.0-2.0-4.0-0.0-1.1","32","1","2022-04-04 04:10:58","c79472ad15d8b617a4d57d5bf56a810f","128.250.0.206","Mozilla/5.0 (Macintosh; Intel Mac OS X 10_13_6) AppleWebKit/537.36 (KHTML, like Gecko) Chrome/100.0.4896.60 Safari/537.36","Macintosh","Chrome","100.0.4896.60","OS X","10_13_6","null","null","","","
                        <div class=orange>
                        <div class=""centered"">
                            <p style=""font-size: 24px""><b>53%</b></p>
                        </div>","O_2_5_O",""
"","","","","","html-keyboard-response","84","218434","0.0-2.0-4.0-0.0-0.2","32","1","2022-04-04 04:10:58","c79472ad15d8b617a4d57d5bf56a810f","128.250.0.206","Mozilla/5.0 (Macintosh; Intel Mac OS X 10_13_6) AppleWebKit/537.36 (KHTML, like Gecko) Chrome/100.0.4896.60 Safari/537.36","Macintosh","Chrome","100.0.4896.60","OS X","10_13_6","null","null","","","<p style=""font-size:64px;"">+</p>","O_2_5_O",""
"","","","","","html-keyboard-response","85","219688","0.0-2.0-4.0-0.0-1.2","32","1","2022-04-04 04:10:58","c79472ad15d8b617a4d57d5bf56a810f","128.250.0.206","Mozilla/5.0 (Macintosh; Intel Mac OS X 10_13_6) AppleWebKit/537.36 (KHTML, like Gecko) Chrome/100.0.4896.60 Safari/537.36","Macintosh","Chrome","100.0.4896.60","OS X","10_13_6","null","null","","","
                        <div class=orange>
                        <div class=""centered"">
                            <p style=""font-size: 24px""><b>55%</b></p>
                        </div>","O_2_5_O",""
"","","","","","html-keyboard-response","86","220091","0.0-2.0-4.0-0.0-0.3","32","1","2022-04-04 04:10:58","c79472ad15d8b617a4d57d5bf56a810f","128.250.0.206","Mozilla/5.0 (Macintosh; Intel Mac OS X 10_13_6) AppleWebKit/537.36 (KHTML, like Gecko) Chrome/100.0.4896.60 Safari/537.36","Macintosh","Chrome","100.0.4896.60","OS X","10_13_6","null","null","","","<p style=""font-size:64px;"">+</p>","O_2_5_O",""
"","","","","","html-keyboard-response","87","221343","0.0-2.0-4.0-0.0-1.3","32","1","2022-04-04 04:10:58","c79472ad15d8b617a4d57d5bf56a810f","128.250.0.206","Mozilla/5.0 (Macintosh; Intel Mac OS X 10_13_6) AppleWebKit/537.36 (KHTML, like Gecko) Chrome/100.0.4896.60 Safari/537.36","Macintosh","Chrome","100.0.4896.60","OS X","10_13_6","null","null","","","
                        <div class=orange>
                        <div class=""centered"">
                            <p style=""font-size: 24px""><b>53%</b></p>
                        </div>","O_2_5_O",""
"","","","","","html-keyboard-response","88","221747","0.0-2.0-4.0-0.0-0.4","32","1","2022-04-04 04:10:58","c79472ad15d8b617a4d57d5bf56a810f","128.250.0.206","Mozilla/5.0 (Macintosh; Intel Mac OS X 10_13_6) AppleWebKit/537.36 (KHTML, like Gecko) Chrome/100.0.4896.60 Safari/537.36","Macintosh","Chrome","100.0.4896.60","OS X","10_13_6","null","null","","","<p style=""font-size:64px;"">+</p>","O_2_5_O",""
"","","","","","html-keyboard-response","89","223003","0.0-2.0-4.0-0.0-1.4","32","1","2022-04-04 04:10:58","c79472ad15d8b617a4d57d5bf56a810f","128.250.0.206","Mozilla/5.0 (Macintosh; Intel Mac OS X 10_13_6) AppleWebKit/537.36 (KHTML, like Gecko) Chrome/100.0.4896.60 Safari/537.36","Macintosh","Chrome","100.0.4896.60","OS X","10_13_6","null","null","","","
                        <div class=pink>
                        <div class=""centered"">
                            <p style=""font-size: 24px""><b>52%</b></p>
                        </div>","O_2_5_O",""
"","","","","","html-keyboard-response","90","223409","0.0-2.0-4.0-0.0-0.5","32","1","2022-04-04 04:10:58","c79472ad15d8b617a4d57d5bf56a810f","128.250.0.206","Mozilla/5.0 (Macintosh; Intel Mac OS X 10_13_6) AppleWebKit/537.36 (KHTML, like Gecko) Chrome/100.0.4896.60 Safari/537.36","Macintosh","Chrome","100.0.4896.60","OS X","10_13_6","null","null","","","<p style=""font-size:64px;"">+</p>","O_2_5_O",""
"","","","","","html-keyboard-response","91","224663","0.0-2.0-4.0-0.0-1.5","32","1","2022-04-04 04:10:58","c79472ad15d8b617a4d57d5bf56a810f","128.250.0.206","Mozilla/5.0 (Macintosh; Intel Mac OS X 10_13_6) AppleWebKit/537.36 (KHTML, like Gecko) Chrome/100.0.4896.60 Safari/537.36","Macintosh","Chrome","100.0.4896.60","OS X","10_13_6","null","null","","","
                        <div class=pink>
                        <div class=""centered"">
                            <p style=""font-size: 24px""><b>55%</b></p>
                        </div>","O_2_5_O",""
"","","","","","html-keyboard-response","92","225069","0.0-2.0-4.0-1.0-0.0","32","1","2022-04-04 04:10:58","c79472ad15d8b617a4d57d5bf56a810f","128.250.0.206","Mozilla/5.0 (Macintosh; Intel Mac OS X 10_13_6) AppleWebKit/537.36 (KHTML, like Gecko) Chrome/100.0.4896.60 Safari/537.36","Macintosh","Chrome","100.0.4896.60","OS X","10_13_6","null","null","","","<p style=""font-size:64px;"">+</p>","O_2_5_O",""
"","","","","","html-keyboard-response","93","226325","0.0-2.0-4.0-1.0-1.0","32","1","2022-04-04 04:10:58","c79472ad15d8b617a4d57d5bf56a810f","128.250.0.206","Mozilla/5.0 (Macintosh; Intel Mac OS X 10_13_6) AppleWebKit/537.36 (KHTML, like Gecko) Chrome/100.0.4896.60 Safari/537.36","Macintosh","Chrome","100.0.4896.60","OS X","10_13_6","null","null","","","
                        <div class=""orange"">
                        <div class=""centered"">
                            <p style=""font-size: 24px""><b>50%</b></p>
                        </div>","O_2_5_O",""
"","","","","","html-slider-response","94","229393","0.0-2.0-4.0-2.0","32","1","2022-04-04 04:10:58","c79472ad15d8b617a4d57d5bf56a810f","128.250.0.206","Mozilla/5.0 (Macintosh; Intel Mac OS X 10_13_6) AppleWebKit/537.36 (KHTML, like Gecko) Chrome/100.0.4896.60 Safari/537.36","Macintosh","Chrome","100.0.4896.60","OS X","10_13_6","3066.800000011921","12","","","<div style=""width: 500px; height: 100px;""><p>Place your bid for more information.</p></div>","infoBid","41"
"","","","","","html-keyboard-response","95","229800","0.0-2.0-4.0-3.0-0.0","32","1","2022-04-04 04:10:58","c79472ad15d8b617a4d57d5bf56a810f","128.250.0.206","Mozilla/5.0 (Macintosh; Intel Mac OS X 10_13_6) AppleWebKit/537.36 (KHTML, like Gecko) Chrome/100.0.4896.60 Safari/537.36","Macintosh","Chrome","100.0.4896.60","OS X","10_13_6","null","null","","","<p style=""font-size:64px;"">+</p>","O_2_5_O",""
"","","","","","html-keyboard-response","96","231052","0.0-2.0-4.0-3.0-1.0","32","1","2022-04-04 04:10:58","c79472ad15d8b617a4d57d5bf56a810f","128.250.0.206","Mozilla/5.0 (Macintosh; Intel Mac OS X 10_13_6) AppleWebKit/537.36 (KHTML, like Gecko) Chrome/100.0.4896.60 Safari/537.36","Macintosh","Chrome","100.0.4896.60","OS X","10_13_6","null","null","","","<div class=""grey"">
                <div class=""centered"">
                    <p style=""font-size: 24px""><b>???</b></p>
                </div>","O_2_5_O",""
"","","","","","html-keyboard-response","97","231859","0.0-2.0-4.0-4.0-0.0","32","1","2022-04-04 04:10:58","c79472ad15d8b617a4d57d5bf56a810f","128.250.0.206","Mozilla/5.0 (Macintosh; Intel Mac OS X 10_13_6) AppleWebKit/537.36 (KHTML, like Gecko) Chrome/100.0.4896.60 Safari/537.36","Macintosh","Chrome","100.0.4896.60","OS X","10_13_6","805.2999999821186","f","","","
                      <div class=""row"">

                          <div class=""column"">
                              <div class=""orange""></div>
                              <div class=""leftChoiceText"">
                                  <p style=""font-size: 32px""><b>F</b></p>
                              </div>
                          </div>

                          <div class=""column"">
                              <div class=""pink""></div>
                              <div class=""rightChoiceText"">
                                  <p style=""font-size: 32px""><b>J</b></p>
                              </div>
                          </div>

                      </div>

                      <div class=""centeredTop"">
                          Which colour do you<br>
                          predict will win?
                      </div>","O_2_5_O",""
"","","","","","html-keyboard-response","98","233365","0.0-2.0-4.0-4.0-1.0","32","1","2022-04-04 04:10:58","c79472ad15d8b617a4d57d5bf56a810f","128.250.0.206","Mozilla/5.0 (Macintosh; Intel Mac OS X 10_13_6) AppleWebKit/537.36 (KHTML, like Gecko) Chrome/100.0.4896.60 Safari/537.36","Macintosh","Chrome","100.0.4896.60","OS X","10_13_6","null","null","","","<p style=""font-size:64px;"">+</p>","O_2_5_O",""
"","","","","","html-keyboard-response","99","233770","0.0-2.0-5.0-0.0-0.0","32","1","2022-04-04 04:10:58","c79472ad15d8b617a4d57d5bf56a810f","128.250.0.206","Mozilla/5.0 (Macintosh; Intel Mac OS X 10_13_6) AppleWebKit/537.36 (KHTML, like Gecko) Chrome/100.0.4896.60 Safari/537.36","Macintosh","Chrome","100.0.4896.60","OS X","10_13_6","null","null","","","<p style=""font-size:64px;"">+</p>","P_4_5_O",""
"","","","","","html-keyboard-response","100","235027","0.0-2.0-5.0-0.0-1.0","32","1","2022-04-04 04:10:58","c79472ad15d8b617a4d57d5bf56a810f","128.250.0.206","Mozilla/5.0 (Macintosh; Intel Mac OS X 10_13_6) AppleWebKit/537.36 (KHTML, like Gecko) Chrome/100.0.4896.60 Safari/537.36","Macintosh","Chrome","100.0.4896.60","OS X","10_13_6","null","null","","","
                        <div class=pink>
                        <div class=""centered"">
                            <p style=""font-size: 24px""><b>53%</b></p>
                        </div>","P_4_5_O",""
"","","","","","html-keyboard-response","101","235431","0.0-2.0-5.0-0.0-0.1","32","1","2022-04-04 04:10:58","c79472ad15d8b617a4d57d5bf56a810f","128.250.0.206","Mozilla/5.0 (Macintosh; Intel Mac OS X 10_13_6) AppleWebKit/537.36 (KHTML, like Gecko) Chrome/100.0.4896.60 Safari/537.36","Macintosh","Chrome","100.0.4896.60","OS X","10_13_6","null","null","","","<p style=""font-size:64px;"">+</p>","P_4_5_O",""
"","","","","","html-keyboard-response","102","236685","0.0-2.0-5.0-0.0-1.1","32","1","2022-04-04 04:10:58","c79472ad15d8b617a4d57d5bf56a810f","128.250.0.206","Mozilla/5.0 (Macintosh; Intel Mac OS X 10_13_6) AppleWebKit/537.36 (KHTML, like Gecko) Chrome/100.0.4896.60 Safari/537.36","Macintosh","Chrome","100.0.4896.60","OS X","10_13_6","null","null","","","
                        <div class=pink>
                        <div class=""centered"">
                            <p style=""font-size: 24px""><b>54%</b></p>
                        </div>","P_4_5_O",""
"","","","","","html-keyboard-response","103","237088","0.0-2.0-5.0-0.0-0.2","32","1","2022-04-04 04:10:58","c79472ad15d8b617a4d57d5bf56a810f","128.250.0.206","Mozilla/5.0 (Macintosh; Intel Mac OS X 10_13_6) AppleWebKit/537.36 (KHTML, like Gecko) Chrome/100.0.4896.60 Safari/537.36","Macintosh","Chrome","100.0.4896.60","OS X","10_13_6","null","null","","","<p style=""font-size:64px;"">+</p>","P_4_5_O",""
"","","","","","html-keyboard-response","104","238339","0.0-2.0-5.0-0.0-1.2","32","1","2022-04-04 04:10:58","c79472ad15d8b617a4d57d5bf56a810f","128.250.0.206","Mozilla/5.0 (Macintosh; Intel Mac OS X 10_13_6) AppleWebKit/537.36 (KHTML, like Gecko) Chrome/100.0.4896.60 Safari/537.36","Macintosh","Chrome","100.0.4896.60","OS X","10_13_6","null","null","","","
                        <div class=pink>
                        <div class=""centered"">
                            <p style=""font-size: 24px""><b>55%</b></p>
                        </div>","P_4_5_O",""
"","","","","","html-keyboard-response","105","238746","0.0-2.0-5.0-0.0-0.3","32","1","2022-04-04 04:10:58","c79472ad15d8b617a4d57d5bf56a810f","128.250.0.206","Mozilla/5.0 (Macintosh; Intel Mac OS X 10_13_6) AppleWebKit/537.36 (KHTML, like Gecko) Chrome/100.0.4896.60 Safari/537.36","Macintosh","Chrome","100.0.4896.60","OS X","10_13_6","null","null","","","<p style=""font-size:64px;"">+</p>","P_4_5_O",""
"","","","","","html-keyboard-response","106","240000","0.0-2.0-5.0-0.0-1.3","32","1","2022-04-04 04:10:58","c79472ad15d8b617a4d57d5bf56a810f","128.250.0.206","Mozilla/5.0 (Macintosh; Intel Mac OS X 10_13_6) AppleWebKit/537.36 (KHTML, like Gecko) Chrome/100.0.4896.60 Safari/537.36","Macintosh","Chrome","100.0.4896.60","OS X","10_13_6","null","null","","","
                        <div class=orange>
                        <div class=""centered"">
                            <p style=""font-size: 24px""><b>53%</b></p>
                        </div>","P_4_5_O",""
"","","","","","html-keyboard-response","107","240401","0.0-2.0-5.0-0.0-0.4","32","1","2022-04-04 04:10:58","c79472ad15d8b617a4d57d5bf56a810f","128.250.0.206","Mozilla/5.0 (Macintosh; Intel Mac OS X 10_13_6) AppleWebKit/537.36 (KHTML, like Gecko) Chrome/100.0.4896.60 Safari/537.36","Macintosh","Chrome","100.0.4896.60","OS X","10_13_6","null","null","","","<p style=""font-size:64px;"">+</p>","P_4_5_O",""
"","","","","","html-keyboard-response","108","241654","0.0-2.0-5.0-0.0-1.4","32","1","2022-04-04 04:10:58","c79472ad15d8b617a4d57d5bf56a810f","128.250.0.206","Mozilla/5.0 (Macintosh; Intel Mac OS X 10_13_6) AppleWebKit/537.36 (KHTML, like Gecko) Chrome/100.0.4896.60 Safari/537.36","Macintosh","Chrome","100.0.4896.60","OS X","10_13_6","null","null","","","
                        <div class=orange>
                        <div class=""centered"">
                            <p style=""font-size: 24px""><b>52%</b></p>
                        </div>","P_4_5_O",""
"","","","","","html-keyboard-response","109","242059","0.0-2.0-5.0-0.0-0.5","32","1","2022-04-04 04:10:58","c79472ad15d8b617a4d57d5bf56a810f","128.250.0.206","Mozilla/5.0 (Macintosh; Intel Mac OS X 10_13_6) AppleWebKit/537.36 (KHTML, like Gecko) Chrome/100.0.4896.60 Safari/537.36","Macintosh","Chrome","100.0.4896.60","OS X","10_13_6","null","null","","","<p style=""font-size:64px;"">+</p>","P_4_5_O",""
"","","","","","html-keyboard-response","110","243314","0.0-2.0-5.0-0.0-1.5","32","1","2022-04-04 04:10:58","c79472ad15d8b617a4d57d5bf56a810f","128.250.0.206","Mozilla/5.0 (Macintosh; Intel Mac OS X 10_13_6) AppleWebKit/537.36 (KHTML, like Gecko) Chrome/100.0.4896.60 Safari/537.36","Macintosh","Chrome","100.0.4896.60","OS X","10_13_6","null","null","","","
                        <div class=orange>
                        <div class=""centered"">
                            <p style=""font-size: 24px""><b>53%</b></p>
                        </div>","P_4_5_O",""
"","","","","","html-keyboard-response","111","243720","0.0-2.0-5.0-1.0-0.0","32","1","2022-04-04 04:10:58","c79472ad15d8b617a4d57d5bf56a810f","128.250.0.206","Mozilla/5.0 (Macintosh; Intel Mac OS X 10_13_6) AppleWebKit/537.36 (KHTML, like Gecko) Chrome/100.0.4896.60 Safari/537.36","Macintosh","Chrome","100.0.4896.60","OS X","10_13_6","null","null","","","<p style=""font-size:64px;"">+</p>","P_4_5_O",""
"","","","","","html-keyboard-response","112","244975","0.0-2.0-5.0-1.0-1.0","32","1","2022-04-04 04:10:58","c79472ad15d8b617a4d57d5bf56a810f","128.250.0.206","Mozilla/5.0 (Macintosh; Intel Mac OS X 10_13_6) AppleWebKit/537.36 (KHTML, like Gecko) Chrome/100.0.4896.60 Safari/537.36","Macintosh","Chrome","100.0.4896.60","OS X","10_13_6","null","null","","","
                        <div class=""orange"">
                        <div class=""centered"">
                            <p style=""font-size: 24px""><b>50%</b></p>
                        </div>","P_4_5_O",""
"","","","","","html-slider-response","113","248882","0.0-2.0-5.0-2.0","32","1","2022-04-04 04:10:58","c79472ad15d8b617a4d57d5bf56a810f","128.250.0.206","Mozilla/5.0 (Macintosh; Intel Mac OS X 10_13_6) AppleWebKit/537.36 (KHTML, like Gecko) Chrome/100.0.4896.60 Safari/537.36","Macintosh","Chrome","100.0.4896.60","OS X","10_13_6","3906.4000000059605","36","","","<div style=""width: 500px; height: 100px;""><p>Place your bid for more information.</p></div>","infoBid","46"
"","","","","","html-keyboard-response","114","249288","0.0-2.0-5.0-3.0-0.0","32","1","2022-04-04 04:10:58","c79472ad15d8b617a4d57d5bf56a810f","128.250.0.206","Mozilla/5.0 (Macintosh; Intel Mac OS X 10_13_6) AppleWebKit/537.36 (KHTML, like Gecko) Chrome/100.0.4896.60 Safari/537.36","Macintosh","Chrome","100.0.4896.60","OS X","10_13_6","null","null","","","<p style=""font-size:64px;"">+</p>","P_4_5_O",""
"","","","","","html-keyboard-response","115","250542","0.0-2.0-5.0-3.0-1.0","32","1","2022-04-04 04:10:58","c79472ad15d8b617a4d57d5bf56a810f","128.250.0.206","Mozilla/5.0 (Macintosh; Intel Mac OS X 10_13_6) AppleWebKit/537.36 (KHTML, like Gecko) Chrome/100.0.4896.60 Safari/537.36","Macintosh","Chrome","100.0.4896.60","OS X","10_13_6","null","null","","","<div class=orange>
                <div class=""centered"">
                    <p style=""font-size: 24px""><b>51%</b></p>
                </div>","P_4_5_O",""
"","","","","","html-keyboard-response","116","251572","0.0-2.0-5.0-4.0-0.0","32","1","2022-04-04 04:10:58","c79472ad15d8b617a4d57d5bf56a810f","128.250.0.206","Mozilla/5.0 (Macintosh; Intel Mac OS X 10_13_6) AppleWebKit/537.36 (KHTML, like Gecko) Chrome/100.0.4896.60 Safari/537.36","Macintosh","Chrome","100.0.4896.60","OS X","10_13_6","1028.5","f","","","
                      <div class=""row"">

                          <div class=""column"">
                              <div class=""orange""></div>
                              <div class=""leftChoiceText"">
                                  <p style=""font-size: 32px""><b>F</b></p>
                              </div>
                          </div>

                          <div class=""column"">
                              <div class=""pink""></div>
                              <div class=""rightChoiceText"">
                                  <p style=""font-size: 32px""><b>J</b></p>
                              </div>
                          </div>

                      </div>

                      <div class=""centeredTop"">
                          Which colour do you<br>
                          predict will win?
                      </div>","P_4_5_O",""
"","","","","","html-keyboard-response","117","253076","0.0-2.0-5.0-4.0-1.0","32","1","2022-04-04 04:10:58","c79472ad15d8b617a4d57d5bf56a810f","128.250.0.206","Mozilla/5.0 (Macintosh; Intel Mac OS X 10_13_6) AppleWebKit/537.36 (KHTML, like Gecko) Chrome/100.0.4896.60 Safari/537.36","Macintosh","Chrome","100.0.4896.60","OS X","10_13_6","null","null","","","<p style=""font-size:64px;"">+</p>","P_4_5_O",""
"","","","","","html-keyboard-response","118","253479","0.0-2.0-6.0-0.0-0.0","32","1","2022-04-04 04:10:58","c79472ad15d8b617a4d57d5bf56a810f","128.250.0.206","Mozilla/5.0 (Macintosh; Intel Mac OS X 10_13_6) AppleWebKit/537.36 (KHTML, like Gecko) Chrome/100.0.4896.60 Safari/537.36","Macintosh","Chrome","100.0.4896.60","OS X","10_13_6","null","null","","","<p style=""font-size:64px;"">+</p>","O_4_5_O",""
"","","","","","html-keyboard-response","119","254733","0.0-2.0-6.0-0.0-1.0","32","1","2022-04-04 04:10:58","c79472ad15d8b617a4d57d5bf56a810f","128.250.0.206","Mozilla/5.0 (Macintosh; Intel Mac OS X 10_13_6) AppleWebKit/537.36 (KHTML, like Gecko) Chrome/100.0.4896.60 Safari/537.36","Macintosh","Chrome","100.0.4896.60","OS X","10_13_6","null","null","","","
                        <div class=pink>
                        <div class=""centered"">
                            <p style=""font-size: 24px""><b>52%</b></p>
                        </div>","O_4_5_O",""
"","","","","","html-keyboard-response","120","255135","0.0-2.0-6.0-0.0-0.1","32","1","2022-04-04 04:10:58","c79472ad15d8b617a4d57d5bf56a810f","128.250.0.206","Mozilla/5.0 (Macintosh; Intel Mac OS X 10_13_6) AppleWebKit/537.36 (KHTML, like Gecko) Chrome/100.0.4896.60 Safari/537.36","Macintosh","Chrome","100.0.4896.60","OS X","10_13_6","null","null","","","<p style=""font-size:64px;"">+</p>","O_4_5_O",""
"","","","","","html-keyboard-response","121","256387","0.0-2.0-6.0-0.0-1.1","32","1","2022-04-04 04:10:58","c79472ad15d8b617a4d57d5bf56a810f","128.250.0.206","Mozilla/5.0 (Macintosh; Intel Mac OS X 10_13_6) AppleWebKit/537.36 (KHTML, like Gecko) Chrome/100.0.4896.60 Safari/537.36","Macintosh","Chrome","100.0.4896.60","OS X","10_13_6","null","null","","","
                        <div class=pink>
                        <div class=""centered"">
                            <p style=""font-size: 24px""><b>53%</b></p>
                        </div>","O_4_5_O",""
"","","","","","html-keyboard-response","122","256792","0.0-2.0-6.0-0.0-0.2","32","1","2022-04-04 04:10:58","c79472ad15d8b617a4d57d5bf56a810f","128.250.0.206","Mozilla/5.0 (Macintosh; Intel Mac OS X 10_13_6) AppleWebKit/537.36 (KHTML, like Gecko) Chrome/100.0.4896.60 Safari/537.36","Macintosh","Chrome","100.0.4896.60","OS X","10_13_6","null","null","","","<p style=""font-size:64px;"">+</p>","O_4_5_O",""
"","","","","","html-keyboard-response","123","258047","0.0-2.0-6.0-0.0-1.2","32","1","2022-04-04 04:10:58","c79472ad15d8b617a4d57d5bf56a810f","128.250.0.206","Mozilla/5.0 (Macintosh; Intel Mac OS X 10_13_6) AppleWebKit/537.36 (KHTML, like Gecko) Chrome/100.0.4896.60 Safari/537.36","Macintosh","Chrome","100.0.4896.60","OS X","10_13_6","null","null","","","
                        <div class=orange>
                        <div class=""centered"">
                            <p style=""font-size: 24px""><b>54%</b></p>
                        </div>","O_4_5_O",""
"","","","","","html-keyboard-response","124","258453","0.0-2.0-6.0-0.0-0.3","32","1","2022-04-04 04:10:58","c79472ad15d8b617a4d57d5bf56a810f","128.250.0.206","Mozilla/5.0 (Macintosh; Intel Mac OS X 10_13_6) AppleWebKit/537.36 (KHTML, like Gecko) Chrome/100.0.4896.60 Safari/537.36","Macintosh","Chrome","100.0.4896.60","OS X","10_13_6","null","null","","","<p style=""font-size:64px;"">+</p>","O_4_5_O",""
"","","","","","html-keyboard-response","125","259707","0.0-2.0-6.0-0.0-1.3","32","1","2022-04-04 04:10:58","c79472ad15d8b617a4d57d5bf56a810f","128.250.0.206","Mozilla/5.0 (Macintosh; Intel Mac OS X 10_13_6) AppleWebKit/537.36 (KHTML, like Gecko) Chrome/100.0.4896.60 Safari/537.36","Macintosh","Chrome","100.0.4896.60","OS X","10_13_6","null","null","","","
                        <div class=orange>
                        <div class=""centered"">
                            <p style=""font-size: 24px""><b>55%</b></p>
                        </div>","O_4_5_O",""
"","","","","","html-keyboard-response","126","260111","0.0-2.0-6.0-0.0-0.4","32","1","2022-04-04 04:10:58","c79472ad15d8b617a4d57d5bf56a810f","128.250.0.206","Mozilla/5.0 (Macintosh; Intel Mac OS X 10_13_6) AppleWebKit/537.36 (KHTML, like Gecko) Chrome/100.0.4896.60 Safari/537.36","Macintosh","Chrome","100.0.4896.60","OS X","10_13_6","null","null","","","<p style=""font-size:64px;"">+</p>","O_4_5_O",""
"","","","","","html-keyboard-response","127","261365","0.0-2.0-6.0-0.0-1.4","32","1","2022-04-04 04:10:58","c79472ad15d8b617a4d57d5bf56a810f","128.250.0.206","Mozilla/5.0 (Macintosh; Intel Mac OS X 10_13_6) AppleWebKit/537.36 (KHTML, like Gecko) Chrome/100.0.4896.60 Safari/537.36","Macintosh","Chrome","100.0.4896.60","OS X","10_13_6","null","null","","","
                        <div class=orange>
                        <div class=""centered"">
                            <p style=""font-size: 24px""><b>53%</b></p>
                        </div>","O_4_5_O",""
"","","","","","html-keyboard-response","128","261767","0.0-2.0-6.0-0.0-0.5","32","1","2022-04-04 04:10:58","c79472ad15d8b617a4d57d5bf56a810f","128.250.0.206","Mozilla/5.0 (Macintosh; Intel Mac OS X 10_13_6) AppleWebKit/537.36 (KHTML, like Gecko) Chrome/100.0.4896.60 Safari/537.36","Macintosh","Chrome","100.0.4896.60","OS X","10_13_6","null","null","","","<p style=""font-size:64px;"">+</p>","O_4_5_O",""
"","","","","","html-keyboard-response","129","263022","0.0-2.0-6.0-0.0-1.5","32","1","2022-04-04 04:10:58","c79472ad15d8b617a4d57d5bf56a810f","128.250.0.206","Mozilla/5.0 (Macintosh; Intel Mac OS X 10_13_6) AppleWebKit/537.36 (KHTML, like Gecko) Chrome/100.0.4896.60 Safari/537.36","Macintosh","Chrome","100.0.4896.60","OS X","10_13_6","null","null","","","
                        <div class=pink>
                        <div class=""centered"">
                            <p style=""font-size: 24px""><b>53%</b></p>
                        </div>","O_4_5_O",""
"","","","","","html-keyboard-response","130","263426","0.0-2.0-6.0-1.0-0.0","32","1","2022-04-04 04:10:58","c79472ad15d8b617a4d57d5bf56a810f","128.250.0.206","Mozilla/5.0 (Macintosh; Intel Mac OS X 10_13_6) AppleWebKit/537.36 (KHTML, like Gecko) Chrome/100.0.4896.60 Safari/537.36","Macintosh","Chrome","100.0.4896.60","OS X","10_13_6","null","null","","","<p style=""font-size:64px;"">+</p>","O_4_5_O",""
"","","","","","html-keyboard-response","131","264680","0.0-2.0-6.0-1.0-1.0","32","1","2022-04-04 04:10:58","c79472ad15d8b617a4d57d5bf56a810f","128.250.0.206","Mozilla/5.0 (Macintosh; Intel Mac OS X 10_13_6) AppleWebKit/537.36 (KHTML, like Gecko) Chrome/100.0.4896.60 Safari/537.36","Macintosh","Chrome","100.0.4896.60","OS X","10_13_6","null","null","","","
                        <div class=""orange"">
                        <div class=""centered"">
                            <p style=""font-size: 24px""><b>50%</b></p>
                        </div>","O_4_5_O",""
"","","","","","html-slider-response","132","267672","0.0-2.0-6.0-2.0","32","1","2022-04-04 04:10:58","c79472ad15d8b617a4d57d5bf56a810f","128.250.0.206","Mozilla/5.0 (Macintosh; Intel Mac OS X 10_13_6) AppleWebKit/537.36 (KHTML, like Gecko) Chrome/100.0.4896.60 Safari/537.36","Macintosh","Chrome","100.0.4896.60","OS X","10_13_6","2991.199999988079","14","","","<div style=""width: 500px; height: 100px;""><p>Place your bid for more information.</p></div>","infoBid","6"
"","","","","","html-keyboard-response","133","268077","0.0-2.0-6.0-3.0-0.0","32","1","2022-04-04 04:10:58","c79472ad15d8b617a4d57d5bf56a810f","128.250.0.206","Mozilla/5.0 (Macintosh; Intel Mac OS X 10_13_6) AppleWebKit/537.36 (KHTML, like Gecko) Chrome/100.0.4896.60 Safari/537.36","Macintosh","Chrome","100.0.4896.60","OS X","10_13_6","null","null","","","<p style=""font-size:64px;"">+</p>","O_4_5_O",""
"","","","","","html-keyboard-response","134","269332","0.0-2.0-6.0-3.0-1.0","32","1","2022-04-04 04:10:58","c79472ad15d8b617a4d57d5bf56a810f","128.250.0.206","Mozilla/5.0 (Macintosh; Intel Mac OS X 10_13_6) AppleWebKit/537.36 (KHTML, like Gecko) Chrome/100.0.4896.60 Safari/537.36","Macintosh","Chrome","100.0.4896.60","OS X","10_13_6","null","null","","","<div class=""grey"">
                <div class=""centered"">
                    <p style=""font-size: 24px""><b>???</b></p>
                </div>","O_4_5_O",""
"","","","","","html-keyboard-response","135","270333","0.0-2.0-6.0-4.0-0.0","32","1","2022-04-04 04:10:58","c79472ad15d8b617a4d57d5bf56a810f","128.250.0.206","Mozilla/5.0 (Macintosh; Intel Mac OS X 10_13_6) AppleWebKit/537.36 (KHTML, like Gecko) Chrome/100.0.4896.60 Safari/537.36","Macintosh","Chrome","100.0.4896.60","OS X","10_13_6","998.5999999940395","f","","","
                      <div class=""row"">

                          <div class=""column"">
                              <div class=""orange""></div>
                              <div class=""leftChoiceText"">
                                  <p style=""font-size: 32px""><b>F</b></p>
                              </div>
                          </div>

                          <div class=""column"">
                              <div class=""pink""></div>
                              <div class=""rightChoiceText"">
                                  <p style=""font-size: 32px""><b>J</b></p>
                              </div>
                          </div>

                      </div>

                      <div class=""centeredTop"">
                          Which colour do you<br>
                          predict will win?
                      </div>","O_4_5_O",""
"","","","","","html-keyboard-response","136","271835","0.0-2.0-6.0-4.0-1.0","32","1","2022-04-04 04:10:58","c79472ad15d8b617a4d57d5bf56a810f","128.250.0.206","Mozilla/5.0 (Macintosh; Intel Mac OS X 10_13_6) AppleWebKit/537.36 (KHTML, like Gecko) Chrome/100.0.4896.60 Safari/537.36","Macintosh","Chrome","100.0.4896.60","OS X","10_13_6","null","null","","","<p style=""font-size:64px;"">+</p>","O_4_5_O",""
"","","","","","html-keyboard-response","137","272239","0.0-2.0-7.0-0.0-0.0","32","1","2022-04-04 04:10:58","c79472ad15d8b617a4d57d5bf56a810f","128.250.0.206","Mozilla/5.0 (Macintosh; Intel Mac OS X 10_13_6) AppleWebKit/537.36 (KHTML, like Gecko) Chrome/100.0.4896.60 Safari/537.36","Macintosh","Chrome","100.0.4896.60","OS X","10_13_6","null","null","","","<p style=""font-size:64px;"">+</p>","P_4_1_O",""
"","","","","","html-keyboard-response","138","273495","0.0-2.0-7.0-0.0-1.0","32","1","2022-04-04 04:10:58","c79472ad15d8b617a4d57d5bf56a810f","128.250.0.206","Mozilla/5.0 (Macintosh; Intel Mac OS X 10_13_6) AppleWebKit/537.36 (KHTML, like Gecko) Chrome/100.0.4896.60 Safari/537.36","Macintosh","Chrome","100.0.4896.60","OS X","10_13_6","null","null","","","
                        <div class=orange>
                        <div class=""centered"">
                            <p style=""font-size: 24px""><b>51%</b></p>
                        </div>","P_4_1_O",""
"","","","","","html-keyboard-response","139","273901","0.0-2.0-7.0-0.0-0.1","32","1","2022-04-04 04:10:58","c79472ad15d8b617a4d57d5bf56a810f","128.250.0.206","Mozilla/5.0 (Macintosh; Intel Mac OS X 10_13_6) AppleWebKit/537.36 (KHTML, like Gecko) Chrome/100.0.4896.60 Safari/537.36","Macintosh","Chrome","100.0.4896.60","OS X","10_13_6","null","null","","","<p style=""font-size:64px;"">+</p>","P_4_1_O",""
"","","","","","html-keyboard-response","140","275155","0.0-2.0-7.0-0.0-1.1","32","1","2022-04-04 04:10:58","c79472ad15d8b617a4d57d5bf56a810f","128.250.0.206","Mozilla/5.0 (Macintosh; Intel Mac OS X 10_13_6) AppleWebKit/537.36 (KHTML, like Gecko) Chrome/100.0.4896.60 Safari/537.36","Macintosh","Chrome","100.0.4896.60","OS X","10_13_6","null","null","","","
                        <div class=orange>
                        <div class=""centered"">
                            <p style=""font-size: 24px""><b>55%</b></p>
                        </div>","P_4_1_O",""
"","","","","","html-keyboard-response","141","275559","0.0-2.0-7.0-0.0-0.2","32","1","2022-04-04 04:10:58","c79472ad15d8b617a4d57d5bf56a810f","128.250.0.206","Mozilla/5.0 (Macintosh; Intel Mac OS X 10_13_6) AppleWebKit/537.36 (KHTML, like Gecko) Chrome/100.0.4896.60 Safari/537.36","Macintosh","Chrome","100.0.4896.60","OS X","10_13_6","null","null","","","<p style=""font-size:64px;"">+</p>","P_4_1_O",""
"","","","","","html-keyboard-response","142","276812","0.0-2.0-7.0-0.0-1.2","32","1","2022-04-04 04:10:58","c79472ad15d8b617a4d57d5bf56a810f","128.250.0.206","Mozilla/5.0 (Macintosh; Intel Mac OS X 10_13_6) AppleWebKit/537.36 (KHTML, like Gecko) Chrome/100.0.4896.60 Safari/537.36","Macintosh","Chrome","100.0.4896.60","OS X","10_13_6","null","null","","","
                        <div class=orange>
                        <div class=""centered"">
                            <p style=""font-size: 24px""><b>51%</b></p>
                        </div>","P_4_1_O",""
"","","","","","html-keyboard-response","143","277219","0.0-2.0-7.0-0.0-0.3","32","1","2022-04-04 04:10:58","c79472ad15d8b617a4d57d5bf56a810f","128.250.0.206","Mozilla/5.0 (Macintosh; Intel Mac OS X 10_13_6) AppleWebKit/537.36 (KHTML, like Gecko) Chrome/100.0.4896.60 Safari/537.36","Macintosh","Chrome","100.0.4896.60","OS X","10_13_6","null","null","","","<p style=""font-size:64px;"">+</p>","P_4_1_O",""
"","","","","","html-keyboard-response","144","278476","0.0-2.0-7.0-0.0-1.3","32","1","2022-04-04 04:10:58","c79472ad15d8b617a4d57d5bf56a810f","128.250.0.206","Mozilla/5.0 (Macintosh; Intel Mac OS X 10_13_6) AppleWebKit/537.36 (KHTML, like Gecko) Chrome/100.0.4896.60 Safari/537.36","Macintosh","Chrome","100.0.4896.60","OS X","10_13_6","null","null","","","
                        <div class=pink>
                        <div class=""centered"">
                            <p style=""font-size: 24px""><b>54%</b></p>
                        </div>","P_4_1_O",""
"","","","","","html-keyboard-response","145","278879","0.0-2.0-7.0-0.0-0.4","32","1","2022-04-04 04:10:58","c79472ad15d8b617a4d57d5bf56a810f","128.250.0.206","Mozilla/5.0 (Macintosh; Intel Mac OS X 10_13_6) AppleWebKit/537.36 (KHTML, like Gecko) Chrome/100.0.4896.60 Safari/537.36","Macintosh","Chrome","100.0.4896.60","OS X","10_13_6","null","null","","","<p style=""font-size:64px;"">+</p>","P_4_1_O",""
"","","","","","html-keyboard-response","146","280136","0.0-2.0-7.0-0.0-1.4","32","1","2022-04-04 04:10:58","c79472ad15d8b617a4d57d5bf56a810f","128.250.0.206","Mozilla/5.0 (Macintosh; Intel Mac OS X 10_13_6) AppleWebKit/537.36 (KHTML, like Gecko) Chrome/100.0.4896.60 Safari/537.36","Macintosh","Chrome","100.0.4896.60","OS X","10_13_6","null","null","","","
                        <div class=pink>
                        <div class=""centered"">
                            <p style=""font-size: 24px""><b>54%</b></p>
                        </div>","P_4_1_O",""
"","","","","","html-keyboard-response","147","280542","0.0-2.0-7.0-0.0-0.5","32","1","2022-04-04 04:10:58","c79472ad15d8b617a4d57d5bf56a810f","128.250.0.206","Mozilla/5.0 (Macintosh; Intel Mac OS X 10_13_6) AppleWebKit/537.36 (KHTML, like Gecko) Chrome/100.0.4896.60 Safari/537.36","Macintosh","Chrome","100.0.4896.60","OS X","10_13_6","null","null","","","<p style=""font-size:64px;"">+</p>","P_4_1_O",""
"","","","","","html-keyboard-response","148","281798","0.0-2.0-7.0-0.0-1.5","32","1","2022-04-04 04:10:58","c79472ad15d8b617a4d57d5bf56a810f","128.250.0.206","Mozilla/5.0 (Macintosh; Intel Mac OS X 10_13_6) AppleWebKit/537.36 (KHTML, like Gecko) Chrome/100.0.4896.60 Safari/537.36","Macintosh","Chrome","100.0.4896.60","OS X","10_13_6","null","null","","","
                        <div class=pink>
                        <div class=""centered"">
                            <p style=""font-size: 24px""><b>53%</b></p>
                        </div>","P_4_1_O",""
"","","","","","html-keyboard-response","149","282203","0.0-2.0-7.0-1.0-0.0","32","1","2022-04-04 04:10:58","c79472ad15d8b617a4d57d5bf56a810f","128.250.0.206","Mozilla/5.0 (Macintosh; Intel Mac OS X 10_13_6) AppleWebKit/537.36 (KHTML, like Gecko) Chrome/100.0.4896.60 Safari/537.36","Macintosh","Chrome","100.0.4896.60","OS X","10_13_6","null","null","","","<p style=""font-size:64px;"">+</p>","P_4_1_O",""
"","","","","","html-keyboard-response","150","283456","0.0-2.0-7.0-1.0-1.0","32","1","2022-04-04 04:10:58","c79472ad15d8b617a4d57d5bf56a810f","128.250.0.206","Mozilla/5.0 (Macintosh; Intel Mac OS X 10_13_6) AppleWebKit/537.36 (KHTML, like Gecko) Chrome/100.0.4896.60 Safari/537.36","Macintosh","Chrome","100.0.4896.60","OS X","10_13_6","null","null","","","
                        <div class=""orange"">
                        <div class=""centered"">
                            <p style=""font-size: 24px""><b>50%</b></p>
                        </div>","P_4_1_O",""
"","","","","","html-slider-response","151","285219","0.0-2.0-7.0-2.0","32","1","2022-04-04 04:10:58","c79472ad15d8b617a4d57d5bf56a810f","128.250.0.206","Mozilla/5.0 (Macintosh; Intel Mac OS X 10_13_6) AppleWebKit/537.36 (KHTML, like Gecko) Chrome/100.0.4896.60 Safari/537.36","Macintosh","Chrome","100.0.4896.60","OS X","10_13_6","1761.2000000178814","11","","","<div style=""width: 500px; height: 100px;""><p>Place your bid for more information.</p></div>","infoBid","44"
"","","","","","html-keyboard-response","152","285622","0.0-2.0-7.0-3.0-0.0","32","1","2022-04-04 04:10:58","c79472ad15d8b617a4d57d5bf56a810f","128.250.0.206","Mozilla/5.0 (Macintosh; Intel Mac OS X 10_13_6) AppleWebKit/537.36 (KHTML, like Gecko) Chrome/100.0.4896.60 Safari/537.36","Macintosh","Chrome","100.0.4896.60","OS X","10_13_6","null","null","","","<p style=""font-size:64px;"">+</p>","P_4_1_O",""
"","","","","","html-keyboard-response","153","286878","0.0-2.0-7.0-3.0-1.0","32","1","2022-04-04 04:10:58","c79472ad15d8b617a4d57d5bf56a810f","128.250.0.206","Mozilla/5.0 (Macintosh; Intel Mac OS X 10_13_6) AppleWebKit/537.36 (KHTML, like Gecko) Chrome/100.0.4896.60 Safari/537.36","Macintosh","Chrome","100.0.4896.60","OS X","10_13_6","null","null","","","<div class=pink>
                <div class=""centered"">
                    <p style=""font-size: 24px""><b>53%</b></p>
                </div>","P_4_1_O",""
"","","","","","html-keyboard-response","154","287444","0.0-2.0-7.0-4.0-0.0","32","1","2022-04-04 04:10:58","c79472ad15d8b617a4d57d5bf56a810f","128.250.0.206","Mozilla/5.0 (Macintosh; Intel Mac OS X 10_13_6) AppleWebKit/537.36 (KHTML, like Gecko) Chrome/100.0.4896.60 Safari/537.36","Macintosh","Chrome","100.0.4896.60","OS X","10_13_6","565.1999999880791","j","","","
                      <div class=""row"">

                          <div class=""column"">
                              <div class=""orange""></div>
                              <div class=""leftChoiceText"">
                                  <p style=""font-size: 32px""><b>F</b></p>
                              </div>
                          </div>

                          <div class=""column"">
                              <div class=""pink""></div>
                              <div class=""rightChoiceText"">
                                  <p style=""font-size: 32px""><b>J</b></p>
                              </div>
                          </div>

                      </div>

                      <div class=""centeredTop"">
                          Which colour do you<br>
                          predict will win?
                      </div>","P_4_1_O",""
"","","","","","html-keyboard-response","155","288948","0.0-2.0-7.0-4.0-1.0","32","1","2022-04-04 04:10:58","c79472ad15d8b617a4d57d5bf56a810f","128.250.0.206","Mozilla/5.0 (Macintosh; Intel Mac OS X 10_13_6) AppleWebKit/537.36 (KHTML, like Gecko) Chrome/100.0.4896.60 Safari/537.36","Macintosh","Chrome","100.0.4896.60","OS X","10_13_6","null","null","","","<p style=""font-size:64px;"">+</p>","P_4_1_O",""
"","","","","","html-keyboard-response","156","290692","0.0-2.0-8.0","32","1","2022-04-04 04:10:58","c79472ad15d8b617a4d57d5bf56a810f","128.250.0.206","Mozilla/5.0 (Macintosh; Intel Mac OS X 10_13_6) AppleWebKit/537.36 (KHTML, like Gecko) Chrome/100.0.4896.60 Safari/537.36","Macintosh","Chrome","100.0.4896.60","OS X","10_13_6","1743.300000011921"," ","","","This is the end of the practice trials.<br><br>
        Press spacebar to begin the experiment.","",""
"","","","","","html-keyboard-response","157","291097","0.0-2.0-9.0-0.0-0.0","32","1","2022-04-04 04:10:58","c79472ad15d8b617a4d57d5bf56a810f","128.250.0.206","Mozilla/5.0 (Macintosh; Intel Mac OS X 10_13_6) AppleWebKit/537.36 (KHTML, like Gecko) Chrome/100.0.4896.60 Safari/537.36","Macintosh","Chrome","100.0.4896.60","OS X","10_13_6","null","null","","","<p style=""font-size:64px;"">+</p>","O_4_5_O",""
"","","","","","html-keyboard-response","158","292351","0.0-2.0-9.0-0.0-1.0","32","1","2022-04-04 04:10:58","c79472ad15d8b617a4d57d5bf56a810f","128.250.0.206","Mozilla/5.0 (Macintosh; Intel Mac OS X 10_13_6) AppleWebKit/537.36 (KHTML, like Gecko) Chrome/100.0.4896.60 Safari/537.36","Macintosh","Chrome","100.0.4896.60","OS X","10_13_6","null","null","","","
                        <div class=orange>
                        <div class=""centered"">
                            <p style=""font-size: 24px""><b>55%</b></p>
                        </div>","O_4_5_O",""
"","","","","","html-keyboard-response","159","292756","0.0-2.0-9.0-0.0-0.1","32","1","2022-04-04 04:10:58","c79472ad15d8b617a4d57d5bf56a810f","128.250.0.206","Mozilla/5.0 (Macintosh; Intel Mac OS X 10_13_6) AppleWebKit/537.36 (KHTML, like Gecko) Chrome/100.0.4896.60 Safari/537.36","Macintosh","Chrome","100.0.4896.60","OS X","10_13_6","null","null","","","<p style=""font-size:64px;"">+</p>","O_4_5_O",""
"","","","","","html-keyboard-response","160","294011","0.0-2.0-9.0-0.0-1.1","32","1","2022-04-04 04:10:58","c79472ad15d8b617a4d57d5bf56a810f","128.250.0.206","Mozilla/5.0 (Macintosh; Intel Mac OS X 10_13_6) AppleWebKit/537.36 (KHTML, like Gecko) Chrome/100.0.4896.60 Safari/537.36","Macintosh","Chrome","100.0.4896.60","OS X","10_13_6","null","null","","","
                        <div class=orange>
                        <div class=""centered"">
                            <p style=""font-size: 24px""><b>53%</b></p>
                        </div>","O_4_5_O",""
"","","","","","html-keyboard-response","161","294416","0.0-2.0-9.0-0.0-0.2","32","1","2022-04-04 04:10:58","c79472ad15d8b617a4d57d5bf56a810f","128.250.0.206","Mozilla/5.0 (Macintosh; Intel Mac OS X 10_13_6) AppleWebKit/537.36 (KHTML, like Gecko) Chrome/100.0.4896.60 Safari/537.36","Macintosh","Chrome","100.0.4896.60","OS X","10_13_6","null","null","","","<p style=""font-size:64px;"">+</p>","O_4_5_O",""
"","","","","","html-keyboard-response","162","295673","0.0-2.0-9.0-0.0-1.2","32","1","2022-04-04 04:10:58","c79472ad15d8b617a4d57d5bf56a810f","128.250.0.206","Mozilla/5.0 (Macintosh; Intel Mac OS X 10_13_6) AppleWebKit/537.36 (KHTML, like Gecko) Chrome/100.0.4896.60 Safari/537.36","Macintosh","Chrome","100.0.4896.60","OS X","10_13_6","null","null","","","
                        <div class=pink>
                        <div class=""centered"">
                            <p style=""font-size: 24px""><b>52%</b></p>
                        </div>","O_4_5_O",""
"","","","","","html-keyboard-response","163","296080","0.0-2.0-9.0-0.0-0.3","32","1","2022-04-04 04:10:58","c79472ad15d8b617a4d57d5bf56a810f","128.250.0.206","Mozilla/5.0 (Macintosh; Intel Mac OS X 10_13_6) AppleWebKit/537.36 (KHTML, like Gecko) Chrome/100.0.4896.60 Safari/537.36","Macintosh","Chrome","100.0.4896.60","OS X","10_13_6","null","null","","","<p style=""font-size:64px;"">+</p>","O_4_5_O",""
"","","","","","html-keyboard-response","164","297335","0.0-2.0-9.0-0.0-1.3","32","1","2022-04-04 04:10:58","c79472ad15d8b617a4d57d5bf56a810f","128.250.0.206","Mozilla/5.0 (Macintosh; Intel Mac OS X 10_13_6) AppleWebKit/537.36 (KHTML, like Gecko) Chrome/100.0.4896.60 Safari/537.36","Macintosh","Chrome","100.0.4896.60","OS X","10_13_6","null","null","","","
                        <div class=orange>
                        <div class=""centered"">
                            <p style=""font-size: 24px""><b>54%</b></p>
                        </div>","O_4_5_O",""
"","","","","","html-keyboard-response","165","297737","0.0-2.0-9.0-0.0-0.4","32","1","2022-04-04 04:10:58","c79472ad15d8b617a4d57d5bf56a810f","128.250.0.206","Mozilla/5.0 (Macintosh; Intel Mac OS X 10_13_6) AppleWebKit/537.36 (KHTML, like Gecko) Chrome/100.0.4896.60 Safari/537.36","Macintosh","Chrome","100.0.4896.60","OS X","10_13_6","null","null","","","<p style=""font-size:64px;"">+</p>","O_4_5_O",""
"","","","","","html-keyboard-response","166","298990","0.0-2.0-9.0-0.0-1.4","32","1","2022-04-04 04:10:58","c79472ad15d8b617a4d57d5bf56a810f","128.250.0.206","Mozilla/5.0 (Macintosh; Intel Mac OS X 10_13_6) AppleWebKit/537.36 (KHTML, like Gecko) Chrome/100.0.4896.60 Safari/537.36","Macintosh","Chrome","100.0.4896.60","OS X","10_13_6","null","null","","","
                        <div class=pink>
                        <div class=""centered"">
                            <p style=""font-size: 24px""><b>53%</b></p>
                        </div>","O_4_5_O",""
"","","","","","html-keyboard-response","167","299394","0.0-2.0-9.0-0.0-0.5","32","1","2022-04-04 04:10:58","c79472ad15d8b617a4d57d5bf56a810f","128.250.0.206","Mozilla/5.0 (Macintosh; Intel Mac OS X 10_13_6) AppleWebKit/537.36 (KHTML, like Gecko) Chrome/100.0.4896.60 Safari/537.36","Macintosh","Chrome","100.0.4896.60","OS X","10_13_6","null","null","","","<p style=""font-size:64px;"">+</p>","O_4_5_O",""
"","","","","","html-keyboard-response","168","300648","0.0-2.0-9.0-0.0-1.5","32","1","2022-04-04 04:10:58","c79472ad15d8b617a4d57d5bf56a810f","128.250.0.206","Mozilla/5.0 (Macintosh; Intel Mac OS X 10_13_6) AppleWebKit/537.36 (KHTML, like Gecko) Chrome/100.0.4896.60 Safari/537.36","Macintosh","Chrome","100.0.4896.60","OS X","10_13_6","null","null","","","
                        <div class=pink>
                        <div class=""centered"">
                            <p style=""font-size: 24px""><b>53%</b></p>
                        </div>","O_4_5_O",""
"","","","","","html-keyboard-response","169","301051","0.0-2.0-9.0-1.0-0.0","32","1","2022-04-04 04:10:58","c79472ad15d8b617a4d57d5bf56a810f","128.250.0.206","Mozilla/5.0 (Macintosh; Intel Mac OS X 10_13_6) AppleWebKit/537.36 (KHTML, like Gecko) Chrome/100.0.4896.60 Safari/537.36","Macintosh","Chrome","100.0.4896.60","OS X","10_13_6","null","null","","","<p style=""font-size:64px;"">+</p>","O_4_5_O",""
"","","","","","html-keyboard-response","170","302306","0.0-2.0-9.0-1.0-1.0","32","1","2022-04-04 04:10:58","c79472ad15d8b617a4d57d5bf56a810f","128.250.0.206","Mozilla/5.0 (Macintosh; Intel Mac OS X 10_13_6) AppleWebKit/537.36 (KHTML, like Gecko) Chrome/100.0.4896.60 Safari/537.36","Macintosh","Chrome","100.0.4896.60","OS X","10_13_6","null","null","","","
                        <div class=""orange"">
                        <div class=""centered"">
                            <p style=""font-size: 24px""><b>50%</b></p>
                        </div>","O_4_5_O",""
"","","","","","html-slider-response","171","311529","0.0-2.0-9.0-2.0","32","1","2022-04-04 04:10:58","c79472ad15d8b617a4d57d5bf56a810f","128.250.0.206","Mozilla/5.0 (Macintosh; Intel Mac OS X 10_13_6) AppleWebKit/537.36 (KHTML, like Gecko) Chrome/100.0.4896.60 Safari/537.36","Macintosh","Chrome","100.0.4896.60","OS X","10_13_6","9221.90000000596","14","","","<div style=""width: 500px; height: 100px;""><p>Place your bid for more information.</p></div>","infoBid","13"
"","","","","","html-keyboard-response","172","311935","0.0-2.0-9.0-3.0-0.0","32","1","2022-04-04 04:10:58","c79472ad15d8b617a4d57d5bf56a810f","128.250.0.206","Mozilla/5.0 (Macintosh; Intel Mac OS X 10_13_6) AppleWebKit/537.36 (KHTML, like Gecko) Chrome/100.0.4896.60 Safari/537.36","Macintosh","Chrome","100.0.4896.60","OS X","10_13_6","null","null","","","<p style=""font-size:64px;"">+</p>","O_4_5_O",""
"","","","","","html-keyboard-response","173","313190","0.0-2.0-9.0-3.0-1.0","32","1","2022-04-04 04:10:58","c79472ad15d8b617a4d57d5bf56a810f","128.250.0.206","Mozilla/5.0 (Macintosh; Intel Mac OS X 10_13_6) AppleWebKit/537.36 (KHTML, like Gecko) Chrome/100.0.4896.60 Safari/537.36","Macintosh","Chrome","100.0.4896.60","OS X","10_13_6","null","null","","","<div class=pink>
                <div class=""centered"">
                    <p style=""font-size: 24px""><b>51%</b></p>
                </div>","O_4_5_O",""
"","","","","","html-keyboard-response","174","314345","0.0-2.0-9.0-4.0-0.0","32","1","2022-04-04 04:10:58","c79472ad15d8b617a4d57d5bf56a810f","128.250.0.206","Mozilla/5.0 (Macintosh; Intel Mac OS X 10_13_6) AppleWebKit/537.36 (KHTML, like Gecko) Chrome/100.0.4896.60 Safari/537.36","Macintosh","Chrome","100.0.4896.60","OS X","10_13_6","1153.4000000059605","f","","","
                      <div class=""row"">

                          <div class=""column"">
                              <div class=""orange""></div>
                              <div class=""leftChoiceText"">
                                  <p style=""font-size: 32px""><b>F</b></p>
                              </div>
                          </div>

                          <div class=""column"">
                              <div class=""pink""></div>
                              <div class=""rightChoiceText"">
                                  <p style=""font-size: 32px""><b>J</b></p>
                              </div>
                          </div>

                      </div>

                      <div class=""centeredTop"">
                          Which colour do you<br>
                          predict will win?
                      </div>","O_4_5_O",""
"","","","","","html-keyboard-response","175","315851","0.0-2.0-9.0-4.0-1.0","32","1","2022-04-04 04:10:58","c79472ad15d8b617a4d57d5bf56a810f","128.250.0.206","Mozilla/5.0 (Macintosh; Intel Mac OS X 10_13_6) AppleWebKit/537.36 (KHTML, like Gecko) Chrome/100.0.4896.60 Safari/537.36","Macintosh","Chrome","100.0.4896.60","OS X","10_13_6","null","null","","","<p style=""font-size:64px;"">+</p>","O_4_5_O",""
"","","","","","html-keyboard-response","176","316258","0.0-2.0-10.0-0.0-0.0","32","1","2022-04-04 04:10:58","c79472ad15d8b617a4d57d5bf56a810f","128.250.0.206","Mozilla/5.0 (Macintosh; Intel Mac OS X 10_13_6) AppleWebKit/537.36 (KHTML, like Gecko) Chrome/100.0.4896.60 Safari/537.36","Macintosh","Chrome","100.0.4896.60","OS X","10_13_6","null","null","","","<p style=""font-size:64px;"">+</p>","O_6_4_O",""
"","","","","","html-keyboard-response","177","317509","0.0-2.0-10.0-0.0-1.0","32","1","2022-04-04 04:10:58","c79472ad15d8b617a4d57d5bf56a810f","128.250.0.206","Mozilla/5.0 (Macintosh; Intel Mac OS X 10_13_6) AppleWebKit/537.36 (KHTML, like Gecko) Chrome/100.0.4896.60 Safari/537.36","Macintosh","Chrome","100.0.4896.60","OS X","10_13_6","null","null","","","
                        <div class=pink>
                        <div class=""centered"">
                            <p style=""font-size: 24px""><b>52%</b></p>
                        </div>","O_6_4_O",""
"","","","","","html-keyboard-response","178","317915","0.0-2.0-10.0-0.0-0.1","32","1","2022-04-04 04:10:58","c79472ad15d8b617a4d57d5bf56a810f","128.250.0.206","Mozilla/5.0 (Macintosh; Intel Mac OS X 10_13_6) AppleWebKit/537.36 (KHTML, like Gecko) Chrome/100.0.4896.60 Safari/537.36","Macintosh","Chrome","100.0.4896.60","OS X","10_13_6","null","null","","","<p style=""font-size:64px;"">+</p>","O_6_4_O",""
"","","","","","html-keyboard-response","179","319168","0.0-2.0-10.0-0.0-1.1","32","1","2022-04-04 04:10:58","c79472ad15d8b617a4d57d5bf56a810f","128.250.0.206","Mozilla/5.0 (Macintosh; Intel Mac OS X 10_13_6) AppleWebKit/537.36 (KHTML, like Gecko) Chrome/100.0.4896.60 Safari/537.36","Macintosh","Chrome","100.0.4896.60","OS X","10_13_6","null","null","","","
                        <div class=orange>
                        <div class=""centered"">
                            <p style=""font-size: 24px""><b>54%</b></p>
                        </div>","O_6_4_O",""
"","","","","","html-keyboard-response","180","319572","0.0-2.0-10.0-0.0-0.2","32","1","2022-04-04 04:10:58","c79472ad15d8b617a4d57d5bf56a810f","128.250.0.206","Mozilla/5.0 (Macintosh; Intel Mac OS X 10_13_6) AppleWebKit/537.36 (KHTML, like Gecko) Chrome/100.0.4896.60 Safari/537.36","Macintosh","Chrome","100.0.4896.60","OS X","10_13_6","null","null","","","<p style=""font-size:64px;"">+</p>","O_6_4_O",""
"","","","","","html-keyboard-response","181","320824","0.0-2.0-10.0-0.0-1.2","32","1","2022-04-04 04:10:58","c79472ad15d8b617a4d57d5bf56a810f","128.250.0.206","Mozilla/5.0 (Macintosh; Intel Mac OS X 10_13_6) AppleWebKit/537.36 (KHTML, like Gecko) Chrome/100.0.4896.60 Safari/537.36","Macintosh","Chrome","100.0.4896.60","OS X","10_13_6","null","null","","","
                        <div class=orange>
                        <div class=""centered"">
                            <p style=""font-size: 24px""><b>54%</b></p>
                        </div>","O_6_4_O",""
"","","","","","html-keyboard-response","182","321233","0.0-2.0-10.0-0.0-0.3","32","1","2022-04-04 04:10:58","c79472ad15d8b617a4d57d5bf56a810f","128.250.0.206","Mozilla/5.0 (Macintosh; Intel Mac OS X 10_13_6) AppleWebKit/537.36 (KHTML, like Gecko) Chrome/100.0.4896.60 Safari/537.36","Macintosh","Chrome","100.0.4896.60","OS X","10_13_6","null","null","","","<p style=""font-size:64px;"">+</p>","O_6_4_O",""
"","","","","","html-keyboard-response","183","322486","0.0-2.0-10.0-0.0-1.3","32","1","2022-04-04 04:10:58","c79472ad15d8b617a4d57d5bf56a810f","128.250.0.206","Mozilla/5.0 (Macintosh; Intel Mac OS X 10_13_6) AppleWebKit/537.36 (KHTML, like Gecko) Chrome/100.0.4896.60 Safari/537.36","Macintosh","Chrome","100.0.4896.60","OS X","10_13_6","null","null","","","
                        <div class=pink>
                        <div class=""centered"">
                            <p style=""font-size: 24px""><b>52%</b></p>
                        </div>","O_6_4_O",""
"","","","","","html-keyboard-response","184","322890","0.0-2.0-10.0-0.0-0.4","32","1","2022-04-04 04:10:58","c79472ad15d8b617a4d57d5bf56a810f","128.250.0.206","Mozilla/5.0 (Macintosh; Intel Mac OS X 10_13_6) AppleWebKit/537.36 (KHTML, like Gecko) Chrome/100.0.4896.60 Safari/537.36","Macintosh","Chrome","100.0.4896.60","OS X","10_13_6","null","null","","","<p style=""font-size:64px;"">+</p>","O_6_4_O",""
"","","","","","html-keyboard-response","185","324144","0.0-2.0-10.0-0.0-1.4","32","1","2022-04-04 04:10:58","c79472ad15d8b617a4d57d5bf56a810f","128.250.0.206","Mozilla/5.0 (Macintosh; Intel Mac OS X 10_13_6) AppleWebKit/537.36 (KHTML, like Gecko) Chrome/100.0.4896.60 Safari/537.36","Macintosh","Chrome","100.0.4896.60","OS X","10_13_6","null","null","","","
                        <div class=pink>
                        <div class=""centered"">
                            <p style=""font-size: 24px""><b>53%</b></p>
                        </div>","O_6_4_O",""
"","","","","","html-keyboard-response","186","324550","0.0-2.0-10.0-0.0-0.5","32","1","2022-04-04 04:10:58","c79472ad15d8b617a4d57d5bf56a810f","128.250.0.206","Mozilla/5.0 (Macintosh; Intel Mac OS X 10_13_6) AppleWebKit/537.36 (KHTML, like Gecko) Chrome/100.0.4896.60 Safari/537.36","Macintosh","Chrome","100.0.4896.60","OS X","10_13_6","null","null","","","<p style=""font-size:64px;"">+</p>","O_6_4_O",""
"","","","","","html-keyboard-response","187","325806","0.0-2.0-10.0-0.0-1.5","32","1","2022-04-04 04:10:58","c79472ad15d8b617a4d57d5bf56a810f","128.250.0.206","Mozilla/5.0 (Macintosh; Intel Mac OS X 10_13_6) AppleWebKit/537.36 (KHTML, like Gecko) Chrome/100.0.4896.60 Safari/537.36","Macintosh","Chrome","100.0.4896.60","OS X","10_13_6","null","null","","","
                        <div class=orange>
                        <div class=""centered"">
                            <p style=""font-size: 24px""><b>55%</b></p>
                        </div>","O_6_4_O",""
"","","","","","html-keyboard-response","188","326211","0.0-2.0-10.0-1.0-0.0","32","1","2022-04-04 04:10:58","c79472ad15d8b617a4d57d5bf56a810f","128.250.0.206","Mozilla/5.0 (Macintosh; Intel Mac OS X 10_13_6) AppleWebKit/537.36 (KHTML, like Gecko) Chrome/100.0.4896.60 Safari/537.36","Macintosh","Chrome","100.0.4896.60","OS X","10_13_6","null","null","","","<p style=""font-size:64px;"">+</p>","O_6_4_O",""
"","","","","","html-keyboard-response","189","327464","0.0-2.0-10.0-1.0-1.0","32","1","2022-04-04 04:10:58","c79472ad15d8b617a4d57d5bf56a810f","128.250.0.206","Mozilla/5.0 (Macintosh; Intel Mac OS X 10_13_6) AppleWebKit/537.36 (KHTML, like Gecko) Chrome/100.0.4896.60 Safari/537.36","Macintosh","Chrome","100.0.4896.60","OS X","10_13_6","null","null","","","
                        <div class=""orange"">
                        <div class=""centered"">
                            <p style=""font-size: 24px""><b>50%</b></p>
                        </div>","O_6_4_O",""
"","","","","","html-slider-response","190","329134","0.0-2.0-10.0-2.0","32","1","2022-04-04 04:10:58","c79472ad15d8b617a4d57d5bf56a810f","128.250.0.206","Mozilla/5.0 (Macintosh; Intel Mac OS X 10_13_6) AppleWebKit/537.36 (KHTML, like Gecko) Chrome/100.0.4896.60 Safari/537.36","Macintosh","Chrome","100.0.4896.60","OS X","10_13_6","1668.7000000178814","9","","","<div style=""width: 500px; height: 100px;""><p>Place your bid for more information.</p></div>","infoBid","41"
"","","","","","html-keyboard-response","191","329540","0.0-2.0-10.0-3.0-0.0","32","1","2022-04-04 04:10:58","c79472ad15d8b617a4d57d5bf56a810f","128.250.0.206","Mozilla/5.0 (Macintosh; Intel Mac OS X 10_13_6) AppleWebKit/537.36 (KHTML, like Gecko) Chrome/100.0.4896.60 Safari/537.36","Macintosh","Chrome","100.0.4896.60","OS X","10_13_6","null","null","","","<p style=""font-size:64px;"">+</p>","O_6_4_O",""
