"success","timeout","failed_images","failed_audio","failed_video","trial_type","trial_index","time_elapsed","internal_node_id","run_id","condition","recorded_at","source_code_version","ip","user_agent","device","browser","browser_version","platform","platform_version","rt","response","question_order","view_history","stimulus","trial_name","slider_start"
"true","false","[]","[]","[]","preload","0","207","0.0-0.0","26","1","2022-04-03 10:10:24","c79472ad15d8b617a4d57d5bf56a810f","125.63.30.11","Mozilla/5.0 (Macintosh; Intel Mac OS X 10_15_7) AppleWebKit/537.36 (KHTML, like Gecko) Chrome/100.0.4896.60 Safari/537.36","Macintosh","Chrome","100.0.4896.60","OS X","10_15_7","","","","","","",""
"","","","","","survey-multi-choice","1","4007","0.0-1.0-0.0","26","1","2022-04-03 10:10:24","c79472ad15d8b617a4d57d5bf56a810f","125.63.30.11","Mozilla/5.0 (Macintosh; Intel Mac OS X 10_15_7) AppleWebKit/537.36 (KHTML, like Gecko) Chrome/100.0.4896.60 Safari/537.36","Macintosh","Chrome","100.0.4896.60","OS X","10_15_7","3793.9000000059605","{""Gender"":""Female""}","[0]","","","",""
"","","","","","survey-text","2","6508","0.0-1.0-1.0","26","1","2022-04-03 10:10:24","c79472ad15d8b617a4d57d5bf56a810f","125.63.30.11","Mozilla/5.0 (Macintosh; Intel Mac OS X 10_15_7) AppleWebKit/537.36 (KHTML, like Gecko) Chrome/100.0.4896.60 Safari/537.36","Macintosh","Chrome","100.0.4896.60","OS X","10_15_7","2490.7000000029802","{""Age"":""21""}","","","","",""
"","","","","","instructions","3","30042","0.0-1.0-2.0","26","1","2022-04-03 10:10:24","c79472ad15d8b617a4d57d5bf56a810f","125.63.30.11","Mozilla/5.0 (Macintosh; Intel Mac OS X 10_15_7) AppleWebKit/537.36 (KHTML, like Gecko) Chrome/100.0.4896.60 Safari/537.36","Macintosh","Chrome","100.0.4896.60","OS X","10_15_7","23529.29999999702","","","[{""page_index"":0,""viewing_time"":4162},{""page_index"":1,""viewing_time"":1149.7999999970198},{""page_index"":2,""viewing_time"":1784.7999999970198},{""page_index"":3,""viewing_time"":1255.5},{""page_index"":4,""viewing_time"":1007.1000000089407},{""page_index"":5,""viewing_time"":7059.5999999940395},{""page_index"":6,""viewing_time"":1045.2000000029802},{""page_index"":7,""viewing_time"":857.9000000059605},{""page_index"":8,""viewing_time"":555.8999999910593},{""page_index"":9,""viewing_time"":1012.6000000089407},{""page_index"":10,""viewing_time"":1059.0999999940395},{""page_index"":11,""viewing_time"":947.7000000029802},{""page_index"":12,""viewing_time"":740.2000000029802},{""page_index"":13,""viewing_time"":890.7999999970198}]","","",""
"","","","","","html-keyboard-response","4","30446","0.0-2.0-0.0-0.0-0.0","26","1","2022-04-03 10:10:24","c79472ad15d8b617a4d57d5bf56a810f","125.63.30.11","Mozilla/5.0 (Macintosh; Intel Mac OS X 10_15_7) AppleWebKit/537.36 (KHTML, like Gecko) Chrome/100.0.4896.60 Safari/537.36","Macintosh","Chrome","100.0.4896.60","OS X","10_15_7","null","null","","","<p style=""font-size:64px;"">+</p>","O_6_2_O",""
"","","","","","html-keyboard-response","5","31700","0.0-2.0-0.0-0.0-1.0","26","1","2022-04-03 10:10:24","c79472ad15d8b617a4d57d5bf56a810f","125.63.30.11","Mozilla/5.0 (Macintosh; Intel Mac OS X 10_15_7) AppleWebKit/537.36 (KHTML, like Gecko) Chrome/100.0.4896.60 Safari/537.36","Macintosh","Chrome","100.0.4896.60","OS X","10_15_7","null","null","","","
                        <div class=pink>
                        <div class=""centered"">
                            <p style=""font-size: 24px""><b>53%</b></p>
                        </div>","O_6_2_O",""
"","","","","","html-keyboard-response","6","32105","0.0-2.0-0.0-0.0-0.1","26","1","2022-04-03 10:10:24","c79472ad15d8b617a4d57d5bf56a810f","125.63.30.11","Mozilla/5.0 (Macintosh; Intel Mac OS X 10_15_7) AppleWebKit/537.36 (KHTML, like Gecko) Chrome/100.0.4896.60 Safari/537.36","Macintosh","Chrome","100.0.4896.60","OS X","10_15_7","null","null","","","<p style=""font-size:64px;"">+</p>","O_6_2_O",""
"","","","","","html-keyboard-response","7","33358","0.0-2.0-0.0-0.0-1.1","26","1","2022-04-03 10:10:24","c79472ad15d8b617a4d57d5bf56a810f","125.63.30.11","Mozilla/5.0 (Macintosh; Intel Mac OS X 10_15_7) AppleWebKit/537.36 (KHTML, like Gecko) Chrome/100.0.4896.60 Safari/537.36","Macintosh","Chrome","100.0.4896.60","OS X","10_15_7","null","null","","","
                        <div class=pink>
                        <div class=""centered"">
                            <p style=""font-size: 24px""><b>51%</b></p>
                        </div>","O_6_2_O",""
"","","","","","html-keyboard-response","8","33764","0.0-2.0-0.0-0.0-0.2","26","1","2022-04-03 10:10:24","c79472ad15d8b617a4d57d5bf56a810f","125.63.30.11","Mozilla/5.0 (Macintosh; Intel Mac OS X 10_15_7) AppleWebKit/537.36 (KHTML, like Gecko) Chrome/100.0.4896.60 Safari/537.36","Macintosh","Chrome","100.0.4896.60","OS X","10_15_7","null","null","","","<p style=""font-size:64px;"">+</p>","O_6_2_O",""
"","","","","","html-keyboard-response","9","35018","0.0-2.0-0.0-0.0-1.2","26","1","2022-04-03 10:10:24","c79472ad15d8b617a4d57d5bf56a810f","125.63.30.11","Mozilla/5.0 (Macintosh; Intel Mac OS X 10_15_7) AppleWebKit/537.36 (KHTML, like Gecko) Chrome/100.0.4896.60 Safari/537.36","Macintosh","Chrome","100.0.4896.60","OS X","10_15_7","null","null","","","
                        <div class=orange>
                        <div class=""centered"">
                            <p style=""font-size: 24px""><b>53%</b></p>
                        </div>","O_6_2_O",""
"","","","","","html-keyboard-response","10","35423","0.0-2.0-0.0-0.0-0.3","26","1","2022-04-03 10:10:24","c79472ad15d8b617a4d57d5bf56a810f","125.63.30.11","Mozilla/5.0 (Macintosh; Intel Mac OS X 10_15_7) AppleWebKit/537.36 (KHTML, like Gecko) Chrome/100.0.4896.60 Safari/537.36","Macintosh","Chrome","100.0.4896.60","OS X","10_15_7","null","null","","","<p style=""font-size:64px;"">+</p>","O_6_2_O",""
"","","","","","html-keyboard-response","11","36678","0.0-2.0-0.0-0.0-1.3","26","1","2022-04-03 10:10:24","c79472ad15d8b617a4d57d5bf56a810f","125.63.30.11","Mozilla/5.0 (Macintosh; Intel Mac OS X 10_15_7) AppleWebKit/537.36 (KHTML, like Gecko) Chrome/100.0.4896.60 Safari/537.36","Macintosh","Chrome","100.0.4896.60","OS X","10_15_7","null","null","","","
                        <div class=orange>
                        <div class=""centered"">
                            <p style=""font-size: 24px""><b>54%</b></p>
                        </div>","O_6_2_O",""
"","","","","","html-keyboard-response","12","37081","0.0-2.0-0.0-0.0-0.4","26","1","2022-04-03 10:10:24","c79472ad15d8b617a4d57d5bf56a810f","125.63.30.11","Mozilla/5.0 (Macintosh; Intel Mac OS X 10_15_7) AppleWebKit/537.36 (KHTML, like Gecko) Chrome/100.0.4896.60 Safari/537.36","Macintosh","Chrome","100.0.4896.60","OS X","10_15_7","null","null","","","<p style=""font-size:64px;"">+</p>","O_6_2_O",""
"","","","","","html-keyboard-response","13","38335","0.0-2.0-0.0-0.0-1.4","26","1","2022-04-03 10:10:24","c79472ad15d8b617a4d57d5bf56a810f","125.63.30.11","Mozilla/5.0 (Macintosh; Intel Mac OS X 10_15_7) AppleWebKit/537.36 (KHTML, like Gecko) Chrome/100.0.4896.60 Safari/537.36","Macintosh","Chrome","100.0.4896.60","OS X","10_15_7","null","null","","","
                        <div class=pink>
                        <div class=""centered"">
                            <p style=""font-size: 24px""><b>51%</b></p>
                        </div>","O_6_2_O",""
"","","","","","html-keyboard-response","14","38742","0.0-2.0-0.0-0.0-0.5","26","1","2022-04-03 10:10:24","c79472ad15d8b617a4d57d5bf56a810f","125.63.30.11","Mozilla/5.0 (Macintosh; Intel Mac OS X 10_15_7) AppleWebKit/537.36 (KHTML, like Gecko) Chrome/100.0.4896.60 Safari/537.36","Macintosh","Chrome","100.0.4896.60","OS X","10_15_7","null","null","","","<p style=""font-size:64px;"">+</p>","O_6_2_O",""
"","","","","","html-keyboard-response","15","39999","0.0-2.0-0.0-0.0-1.5","26","1","2022-04-03 10:10:24","c79472ad15d8b617a4d57d5bf56a810f","125.63.30.11","Mozilla/5.0 (Macintosh; Intel Mac OS X 10_15_7) AppleWebKit/537.36 (KHTML, like Gecko) Chrome/100.0.4896.60 Safari/537.36","Macintosh","Chrome","100.0.4896.60","OS X","10_15_7","null","null","","","
                        <div class=orange>
                        <div class=""centered"">
                            <p style=""font-size: 24px""><b>54%</b></p>
                        </div>","O_6_2_O",""
"","","","","","html-keyboard-response","16","40404","0.0-2.0-0.0-1.0-0.0","26","1","2022-04-03 10:10:24","c79472ad15d8b617a4d57d5bf56a810f","125.63.30.11","Mozilla/5.0 (Macintosh; Intel Mac OS X 10_15_7) AppleWebKit/537.36 (KHTML, like Gecko) Chrome/100.0.4896.60 Safari/537.36","Macintosh","Chrome","100.0.4896.60","OS X","10_15_7","null","null","","","<p style=""font-size:64px;"">+</p>","O_6_2_O",""
"","","","","","html-keyboard-response","17","41658","0.0-2.0-0.0-1.0-1.0","26","1","2022-04-03 10:10:24","c79472ad15d8b617a4d57d5bf56a810f","125.63.30.11","Mozilla/5.0 (Macintosh; Intel Mac OS X 10_15_7) AppleWebKit/537.36 (KHTML, like Gecko) Chrome/100.0.4896.60 Safari/537.36","Macintosh","Chrome","100.0.4896.60","OS X","10_15_7","null","null","","","
                        <div class=""orange"">
                        <div class=""centered"">
                            <p style=""font-size: 24px""><b>50%</b></p>
                        </div>","O_6_2_O",""
"","","","","","html-slider-response","18","45449","0.0-2.0-0.0-2.0","26","1","2022-04-03 10:10:24","c79472ad15d8b617a4d57d5bf56a810f","125.63.30.11","Mozilla/5.0 (Macintosh; Intel Mac OS X 10_15_7) AppleWebKit/537.36 (KHTML, like Gecko) Chrome/100.0.4896.60 Safari/537.36","Macintosh","Chrome","100.0.4896.60","OS X","10_15_7","3788.5999999940395","0","","","<div style=""width: 500px; height: 100px;""><p>Place your bid for more information.</p></div>","infoBid","18"
"","","","","","html-keyboard-response","19","45853","0.0-2.0-0.0-3.0-0.0","26","1","2022-04-03 10:10:24","c79472ad15d8b617a4d57d5bf56a810f","125.63.30.11","Mozilla/5.0 (Macintosh; Intel Mac OS X 10_15_7) AppleWebKit/537.36 (KHTML, like Gecko) Chrome/100.0.4896.60 Safari/537.36","Macintosh","Chrome","100.0.4896.60","OS X","10_15_7","null","null","","","<p style=""font-size:64px;"">+</p>","O_6_2_O",""
"","","","","","html-keyboard-response","20","47111","0.0-2.0-0.0-3.0-1.0","26","1","2022-04-03 10:10:24","c79472ad15d8b617a4d57d5bf56a810f","125.63.30.11","Mozilla/5.0 (Macintosh; Intel Mac OS X 10_15_7) AppleWebKit/537.36 (KHTML, like Gecko) Chrome/100.0.4896.60 Safari/537.36","Macintosh","Chrome","100.0.4896.60","OS X","10_15_7","null","null","","","<div class=""grey"">
                <div class=""centered"">
                    <p style=""font-size: 24px""><b>???</b></p>
                </div>","O_6_2_O",""
"","","","","","html-keyboard-response","21","51052","0.0-2.0-0.0-4.0-0.0","26","1","2022-04-03 10:10:24","c79472ad15d8b617a4d57d5bf56a810f","125.63.30.11","Mozilla/5.0 (Macintosh; Intel Mac OS X 10_15_7) AppleWebKit/537.36 (KHTML, like Gecko) Chrome/100.0.4896.60 Safari/537.36","Macintosh","Chrome","100.0.4896.60","OS X","10_15_7","3937.800000011921","f","","","
                      <div class=""row"">

                          <div class=""column"">
                              <div class=""orange""></div>
                              <div class=""leftChoiceText"">
                                  <p style=""font-size: 32px""><b>F</b></p>
                              </div>
                          </div>

                          <div class=""column"">
                              <div class=""pink""></div>
                              <div class=""rightChoiceText"">
                                  <p style=""font-size: 32px""><b>J</b></p>
                              </div>
                          </div>

                      </div>

                      <div class=""centeredTop"">
                          Which colour do you<br>
                          predict will win?
                      </div>","O_6_2_O",""
"","","","","","html-keyboard-response","22","52553","0.0-2.0-0.0-4.0-1.0","26","1","2022-04-03 10:10:24","c79472ad15d8b617a4d57d5bf56a810f","125.63.30.11","Mozilla/5.0 (Macintosh; Intel Mac OS X 10_15_7) AppleWebKit/537.36 (KHTML, like Gecko) Chrome/100.0.4896.60 Safari/537.36","Macintosh","Chrome","100.0.4896.60","OS X","10_15_7","null","null","","","<p style=""font-size:64px;"">+</p>","O_6_2_O",""
"","","","","","html-keyboard-response","23","52960","0.0-2.0-1.0-0.0-0.0","26","1","2022-04-03 10:10:24","c79472ad15d8b617a4d57d5bf56a810f","125.63.30.11","Mozilla/5.0 (Macintosh; Intel Mac OS X 10_15_7) AppleWebKit/537.36 (KHTML, like Gecko) Chrome/100.0.4896.60 Safari/537.36","Macintosh","Chrome","100.0.4896.60","OS X","10_15_7","null","null","","","<p style=""font-size:64px;"">+</p>","P_4_2_P",""
"","","","","","html-keyboard-response","24","54213","0.0-2.0-1.0-0.0-1.0","26","1","2022-04-03 10:10:24","c79472ad15d8b617a4d57d5bf56a810f","125.63.30.11","Mozilla/5.0 (Macintosh; Intel Mac OS X 10_15_7) AppleWebKit/537.36 (KHTML, like Gecko) Chrome/100.0.4896.60 Safari/537.36","Macintosh","Chrome","100.0.4896.60","OS X","10_15_7","null","null","","","
                        <div class=orange>
                        <div class=""centered"">
                            <p style=""font-size: 24px""><b>52%</b></p>
                        </div>","P_4_2_P",""
"","","","","","html-keyboard-response","25","54619","0.0-2.0-1.0-0.0-0.1","26","1","2022-04-03 10:10:24","c79472ad15d8b617a4d57d5bf56a810f","125.63.30.11","Mozilla/5.0 (Macintosh; Intel Mac OS X 10_15_7) AppleWebKit/537.36 (KHTML, like Gecko) Chrome/100.0.4896.60 Safari/537.36","Macintosh","Chrome","100.0.4896.60","OS X","10_15_7","null","null","","","<p style=""font-size:64px;"">+</p>","P_4_2_P",""
"","","","","","html-keyboard-response","26","55872","0.0-2.0-1.0-0.0-1.1","26","1","2022-04-03 10:10:24","c79472ad15d8b617a4d57d5bf56a810f","125.63.30.11","Mozilla/5.0 (Macintosh; Intel Mac OS X 10_15_7) AppleWebKit/537.36 (KHTML, like Gecko) Chrome/100.0.4896.60 Safari/537.36","Macintosh","Chrome","100.0.4896.60","OS X","10_15_7","null","null","","","
                        <div class=pink>
                        <div class=""centered"">
                            <p style=""font-size: 24px""><b>51%</b></p>
                        </div>","P_4_2_P",""
"","","","","","html-keyboard-response","27","56277","0.0-2.0-1.0-0.0-0.2","26","1","2022-04-03 10:10:24","c79472ad15d8b617a4d57d5bf56a810f","125.63.30.11","Mozilla/5.0 (Macintosh; Intel Mac OS X 10_15_7) AppleWebKit/537.36 (KHTML, like Gecko) Chrome/100.0.4896.60 Safari/537.36","Macintosh","Chrome","100.0.4896.60","OS X","10_15_7","null","null","","","<p style=""font-size:64px;"">+</p>","P_4_2_P",""
"","","","","","html-keyboard-response","28","57530","0.0-2.0-1.0-0.0-1.2","26","1","2022-04-03 10:10:24","c79472ad15d8b617a4d57d5bf56a810f","125.63.30.11","Mozilla/5.0 (Macintosh; Intel Mac OS X 10_15_7) AppleWebKit/537.36 (KHTML, like Gecko) Chrome/100.0.4896.60 Safari/537.36","Macintosh","Chrome","100.0.4896.60","OS X","10_15_7","null","null","","","
                        <div class=pink>
                        <div class=""centered"">
                            <p style=""font-size: 24px""><b>54%</b></p>
                        </div>","P_4_2_P",""
"","","","","","html-keyboard-response","29","57936","0.0-2.0-1.0-0.0-0.3","26","1","2022-04-03 10:10:24","c79472ad15d8b617a4d57d5bf56a810f","125.63.30.11","Mozilla/5.0 (Macintosh; Intel Mac OS X 10_15_7) AppleWebKit/537.36 (KHTML, like Gecko) Chrome/100.0.4896.60 Safari/537.36","Macintosh","Chrome","100.0.4896.60","OS X","10_15_7","null","null","","","<p style=""font-size:64px;"">+</p>","P_4_2_P",""
"","","","","","html-keyboard-response","30","59189","0.0-2.0-1.0-0.0-1.3","26","1","2022-04-03 10:10:24","c79472ad15d8b617a4d57d5bf56a810f","125.63.30.11","Mozilla/5.0 (Macintosh; Intel Mac OS X 10_15_7) AppleWebKit/537.36 (KHTML, like Gecko) Chrome/100.0.4896.60 Safari/537.36","Macintosh","Chrome","100.0.4896.60","OS X","10_15_7","null","null","","","
                        <div class=pink>
                        <div class=""centered"">
                            <p style=""font-size: 24px""><b>54%</b></p>
                        </div>","P_4_2_P",""
"","","","","","html-keyboard-response","31","59594","0.0-2.0-1.0-0.0-0.4","26","1","2022-04-03 10:10:24","c79472ad15d8b617a4d57d5bf56a810f","125.63.30.11","Mozilla/5.0 (Macintosh; Intel Mac OS X 10_15_7) AppleWebKit/537.36 (KHTML, like Gecko) Chrome/100.0.4896.60 Safari/537.36","Macintosh","Chrome","100.0.4896.60","OS X","10_15_7","null","null","","","<p style=""font-size:64px;"">+</p>","P_4_2_P",""
"","","","","","html-keyboard-response","32","60848","0.0-2.0-1.0-0.0-1.4","26","1","2022-04-03 10:10:24","c79472ad15d8b617a4d57d5bf56a810f","125.63.30.11","Mozilla/5.0 (Macintosh; Intel Mac OS X 10_15_7) AppleWebKit/537.36 (KHTML, like Gecko) Chrome/100.0.4896.60 Safari/537.36","Macintosh","Chrome","100.0.4896.60","OS X","10_15_7","null","null","","","
                        <div class=orange>
                        <div class=""centered"">
                            <p style=""font-size: 24px""><b>52%</b></p>
                        </div>","P_4_2_P",""
"","","","","","html-keyboard-response","33","61250","0.0-2.0-1.0-0.0-0.5","26","1","2022-04-03 10:10:24","c79472ad15d8b617a4d57d5bf56a810f","125.63.30.11","Mozilla/5.0 (Macintosh; Intel Mac OS X 10_15_7) AppleWebKit/537.36 (KHTML, like Gecko) Chrome/100.0.4896.60 Safari/537.36","Macintosh","Chrome","100.0.4896.60","OS X","10_15_7","null","null","","","<p style=""font-size:64px;"">+</p>","P_4_2_P",""
"","","","","","html-keyboard-response","34","62507","0.0-2.0-1.0-0.0-1.5","26","1","2022-04-03 10:10:24","c79472ad15d8b617a4d57d5bf56a810f","125.63.30.11","Mozilla/5.0 (Macintosh; Intel Mac OS X 10_15_7) AppleWebKit/537.36 (KHTML, like Gecko) Chrome/100.0.4896.60 Safari/537.36","Macintosh","Chrome","100.0.4896.60","OS X","10_15_7","null","null","","","
                        <div class=orange>
                        <div class=""centered"">
                            <p style=""font-size: 24px""><b>51%</b></p>
                        </div>","P_4_2_P",""
"","","","","","html-keyboard-response","35","62912","0.0-2.0-1.0-1.0-0.0","26","1","2022-04-03 10:10:24","c79472ad15d8b617a4d57d5bf56a810f","125.63.30.11","Mozilla/5.0 (Macintosh; Intel Mac OS X 10_15_7) AppleWebKit/537.36 (KHTML, like Gecko) Chrome/100.0.4896.60 Safari/537.36","Macintosh","Chrome","100.0.4896.60","OS X","10_15_7","null","null","","","<p style=""font-size:64px;"">+</p>","P_4_2_P",""
"","","","","","html-keyboard-response","36","64165","0.0-2.0-1.0-1.0-1.0","26","1","2022-04-03 10:10:24","c79472ad15d8b617a4d57d5bf56a810f","125.63.30.11","Mozilla/5.0 (Macintosh; Intel Mac OS X 10_15_7) AppleWebKit/537.36 (KHTML, like Gecko) Chrome/100.0.4896.60 Safari/537.36","Macintosh","Chrome","100.0.4896.60","OS X","10_15_7","null","null","","","
                        <div class=""pink"">
                        <div class=""centered"">
                            <p style=""font-size: 24px""><b>50%</b></p>
                        </div>","P_4_2_P",""
"","","","","","html-slider-response","37","67709","0.0-2.0-1.0-2.0","26","1","2022-04-03 10:10:24","c79472ad15d8b617a4d57d5bf56a810f","125.63.30.11","Mozilla/5.0 (Macintosh; Intel Mac OS X 10_15_7) AppleWebKit/537.36 (KHTML, like Gecko) Chrome/100.0.4896.60 Safari/537.36","Macintosh","Chrome","100.0.4896.60","OS X","10_15_7","3539.8999999910593","0","","","<div style=""width: 500px; height: 100px;""><p>Place your bid for more information.</p></div>","infoBid","39"
"","","","","","html-keyboard-response","38","68112","0.0-2.0-1.0-3.0-0.0","26","1","2022-04-03 10:10:24","c79472ad15d8b617a4d57d5bf56a810f","125.63.30.11","Mozilla/5.0 (Macintosh; Intel Mac OS X 10_15_7) AppleWebKit/537.36 (KHTML, like Gecko) Chrome/100.0.4896.60 Safari/537.36","Macintosh","Chrome","100.0.4896.60","OS X","10_15_7","null","null","","","<p style=""font-size:64px;"">+</p>","P_4_2_P",""
"","","","","","html-keyboard-response","39","69366","0.0-2.0-1.0-3.0-1.0","26","1","2022-04-03 10:10:24","c79472ad15d8b617a4d57d5bf56a810f","125.63.30.11","Mozilla/5.0 (Macintosh; Intel Mac OS X 10_15_7) AppleWebKit/537.36 (KHTML, like Gecko) Chrome/100.0.4896.60 Safari/537.36","Macintosh","Chrome","100.0.4896.60","OS X","10_15_7","null","null","","","<div class=""grey"">
                <div class=""centered"">
                    <p style=""font-size: 24px""><b>???</b></p>
                </div>","P_4_2_P",""
"","","","","","html-keyboard-response","40","72484","0.0-2.0-1.0-4.0-0.0","26","1","2022-04-03 10:10:24","c79472ad15d8b617a4d57d5bf56a810f","125.63.30.11","Mozilla/5.0 (Macintosh; Intel Mac OS X 10_15_7) AppleWebKit/537.36 (KHTML, like Gecko) Chrome/100.0.4896.60 Safari/537.36","Macintosh","Chrome","100.0.4896.60","OS X","10_15_7","3115.699999988079","j","","","
                      <div class=""row"">

                          <div class=""column"">
                              <div class=""orange""></div>
                              <div class=""leftChoiceText"">
                                  <p style=""font-size: 32px""><b>F</b></p>
                              </div>
                          </div>

                          <div class=""column"">
                              <div class=""pink""></div>
                              <div class=""rightChoiceText"">
                                  <p style=""font-size: 32px""><b>J</b></p>
                              </div>
                          </div>

                      </div>

                      <div class=""centeredTop"">
                          Which colour do you<br>
                          predict will win?
                      </div>","P_4_2_P",""
"","","","","","html-keyboard-response","41","73990","0.0-2.0-1.0-4.0-1.0","26","1","2022-04-03 10:10:24","c79472ad15d8b617a4d57d5bf56a810f","125.63.30.11","Mozilla/5.0 (Macintosh; Intel Mac OS X 10_15_7) AppleWebKit/537.36 (KHTML, like Gecko) Chrome/100.0.4896.60 Safari/537.36","Macintosh","Chrome","100.0.4896.60","OS X","10_15_7","null","null","","","<p style=""font-size:64px;"">+</p>","P_4_2_P",""
"","","","","","html-keyboard-response","42","74394","0.0-2.0-2.0-0.0-0.0","26","1","2022-04-03 10:10:24","c79472ad15d8b617a4d57d5bf56a810f","125.63.30.11","Mozilla/5.0 (Macintosh; Intel Mac OS X 10_15_7) AppleWebKit/537.36 (KHTML, like Gecko) Chrome/100.0.4896.60 Safari/537.36","Macintosh","Chrome","100.0.4896.60","OS X","10_15_7","null","null","","","<p style=""font-size:64px;"">+</p>","P_2_4_O",""
"","","","","","html-keyboard-response","43","75648","0.0-2.0-2.0-0.0-1.0","26","1","2022-04-03 10:10:24","c79472ad15d8b617a4d57d5bf56a810f","125.63.30.11","Mozilla/5.0 (Macintosh; Intel Mac OS X 10_15_7) AppleWebKit/537.36 (KHTML, like Gecko) Chrome/100.0.4896.60 Safari/537.36","Macintosh","Chrome","100.0.4896.60","OS X","10_15_7","null","null","","","
                        <div class=pink>
                        <div class=""centered"">
                            <p style=""font-size: 24px""><b>55%</b></p>
                        </div>","P_2_4_O",""
"","","","","","html-keyboard-response","44","76054","0.0-2.0-2.0-0.0-0.1","26","1","2022-04-03 10:10:24","c79472ad15d8b617a4d57d5bf56a810f","125.63.30.11","Mozilla/5.0 (Macintosh; Intel Mac OS X 10_15_7) AppleWebKit/537.36 (KHTML, like Gecko) Chrome/100.0.4896.60 Safari/537.36","Macintosh","Chrome","100.0.4896.60","OS X","10_15_7","null","null","","","<p style=""font-size:64px;"">+</p>","P_2_4_O",""
"","","","","","html-keyboard-response","45","77307","0.0-2.0-2.0-0.0-1.1","26","1","2022-04-03 10:10:24","c79472ad15d8b617a4d57d5bf56a810f","125.63.30.11","Mozilla/5.0 (Macintosh; Intel Mac OS X 10_15_7) AppleWebKit/537.36 (KHTML, like Gecko) Chrome/100.0.4896.60 Safari/537.36","Macintosh","Chrome","100.0.4896.60","OS X","10_15_7","null","null","","","
                        <div class=orange>
                        <div class=""centered"">
                            <p style=""font-size: 24px""><b>52%</b></p>
                        </div>","P_2_4_O",""
"","","","","","html-keyboard-response","46","77712","0.0-2.0-2.0-0.0-0.2","26","1","2022-04-03 10:10:24","c79472ad15d8b617a4d57d5bf56a810f","125.63.30.11","Mozilla/5.0 (Macintosh; Intel Mac OS X 10_15_7) AppleWebKit/537.36 (KHTML, like Gecko) Chrome/100.0.4896.60 Safari/537.36","Macintosh","Chrome","100.0.4896.60","OS X","10_15_7","null","null","","","<p style=""font-size:64px;"">+</p>","P_2_4_O",""
"","","","","","html-keyboard-response","47","78965","0.0-2.0-2.0-0.0-1.2","26","1","2022-04-03 10:10:24","c79472ad15d8b617a4d57d5bf56a810f","125.63.30.11","Mozilla/5.0 (Macintosh; Intel Mac OS X 10_15_7) AppleWebKit/537.36 (KHTML, like Gecko) Chrome/100.0.4896.60 Safari/537.36","Macintosh","Chrome","100.0.4896.60","OS X","10_15_7","null","null","","","
                        <div class=pink>
                        <div class=""centered"">
                            <p style=""font-size: 24px""><b>54%</b></p>
                        </div>","P_2_4_O",""
"","","","","","html-keyboard-response","48","79371","0.0-2.0-2.0-0.0-0.3","26","1","2022-04-03 10:10:24","c79472ad15d8b617a4d57d5bf56a810f","125.63.30.11","Mozilla/5.0 (Macintosh; Intel Mac OS X 10_15_7) AppleWebKit/537.36 (KHTML, like Gecko) Chrome/100.0.4896.60 Safari/537.36","Macintosh","Chrome","100.0.4896.60","OS X","10_15_7","null","null","","","<p style=""font-size:64px;"">+</p>","P_2_4_O",""
"","","","","","html-keyboard-response","49","80625","0.0-2.0-2.0-0.0-1.3","26","1","2022-04-03 10:10:24","c79472ad15d8b617a4d57d5bf56a810f","125.63.30.11","Mozilla/5.0 (Macintosh; Intel Mac OS X 10_15_7) AppleWebKit/537.36 (KHTML, like Gecko) Chrome/100.0.4896.60 Safari/537.36","Macintosh","Chrome","100.0.4896.60","OS X","10_15_7","null","null","","","
                        <div class=pink>
                        <div class=""centered"">
                            <p style=""font-size: 24px""><b>52%</b></p>
                        </div>","P_2_4_O",""
"","","","","","html-keyboard-response","50","81030","0.0-2.0-2.0-0.0-0.4","26","1","2022-04-03 10:10:24","c79472ad15d8b617a4d57d5bf56a810f","125.63.30.11","Mozilla/5.0 (Macintosh; Intel Mac OS X 10_15_7) AppleWebKit/537.36 (KHTML, like Gecko) Chrome/100.0.4896.60 Safari/537.36","Macintosh","Chrome","100.0.4896.60","OS X","10_15_7","null","null","","","<p style=""font-size:64px;"">+</p>","P_2_4_O",""
"","","","","","html-keyboard-response","51","82289","0.0-2.0-2.0-0.0-1.4","26","1","2022-04-03 10:10:24","c79472ad15d8b617a4d57d5bf56a810f","125.63.30.11","Mozilla/5.0 (Macintosh; Intel Mac OS X 10_15_7) AppleWebKit/537.36 (KHTML, like Gecko) Chrome/100.0.4896.60 Safari/537.36","Macintosh","Chrome","100.0.4896.60","OS X","10_15_7","null","null","","","
                        <div class=orange>
                        <div class=""centered"">
                            <p style=""font-size: 24px""><b>52%</b></p>
                        </div>","P_2_4_O",""
"","","","","","html-keyboard-response","52","82692","0.0-2.0-2.0-0.0-0.5","26","1","2022-04-03 10:10:24","c79472ad15d8b617a4d57d5bf56a810f","125.63.30.11","Mozilla/5.0 (Macintosh; Intel Mac OS X 10_15_7) AppleWebKit/537.36 (KHTML, like Gecko) Chrome/100.0.4896.60 Safari/537.36","Macintosh","Chrome","100.0.4896.60","OS X","10_15_7","null","null","","","<p style=""font-size:64px;"">+</p>","P_2_4_O",""
"","","","","","html-keyboard-response","53","83947","0.0-2.0-2.0-0.0-1.5","26","1","2022-04-03 10:10:24","c79472ad15d8b617a4d57d5bf56a810f","125.63.30.11","Mozilla/5.0 (Macintosh; Intel Mac OS X 10_15_7) AppleWebKit/537.36 (KHTML, like Gecko) Chrome/100.0.4896.60 Safari/537.36","Macintosh","Chrome","100.0.4896.60","OS X","10_15_7","null","null","","","
                        <div class=orange>
                        <div class=""centered"">
                            <p style=""font-size: 24px""><b>55%</b></p>
                        </div>","P_2_4_O",""
"","","","","","html-keyboard-response","54","84353","0.0-2.0-2.0-1.0-0.0","26","1","2022-04-03 10:10:24","c79472ad15d8b617a4d57d5bf56a810f","125.63.30.11","Mozilla/5.0 (Macintosh; Intel Mac OS X 10_15_7) AppleWebKit/537.36 (KHTML, like Gecko) Chrome/100.0.4896.60 Safari/537.36","Macintosh","Chrome","100.0.4896.60","OS X","10_15_7","null","null","","","<p style=""font-size:64px;"">+</p>","P_2_4_O",""
"","","","","","html-keyboard-response","55","85606","0.0-2.0-2.0-1.0-1.0","26","1","2022-04-03 10:10:24","c79472ad15d8b617a4d57d5bf56a810f","125.63.30.11","Mozilla/5.0 (Macintosh; Intel Mac OS X 10_15_7) AppleWebKit/537.36 (KHTML, like Gecko) Chrome/100.0.4896.60 Safari/537.36","Macintosh","Chrome","100.0.4896.60","OS X","10_15_7","null","null","","","
                        <div class=""orange"">
                        <div class=""centered"">
                            <p style=""font-size: 24px""><b>50%</b></p>
                        </div>","P_2_4_O",""
"","","","","","html-slider-response","56","91527","0.0-2.0-2.0-2.0","26","1","2022-04-03 10:10:24","c79472ad15d8b617a4d57d5bf56a810f","125.63.30.11","Mozilla/5.0 (Macintosh; Intel Mac OS X 10_15_7) AppleWebKit/537.36 (KHTML, like Gecko) Chrome/100.0.4896.60 Safari/537.36","Macintosh","Chrome","100.0.4896.60","OS X","10_15_7","5918.79999999702","0","","","<div style=""width: 500px; height: 100px;""><p>Place your bid for more information.</p></div>","infoBid","2"
"","","","","","html-keyboard-response","57","91931","0.0-2.0-2.0-3.0-0.0","26","1","2022-04-03 10:10:24","c79472ad15d8b617a4d57d5bf56a810f","125.63.30.11","Mozilla/5.0 (Macintosh; Intel Mac OS X 10_15_7) AppleWebKit/537.36 (KHTML, like Gecko) Chrome/100.0.4896.60 Safari/537.36","Macintosh","Chrome","100.0.4896.60","OS X","10_15_7","null","null","","","<p style=""font-size:64px;"">+</p>","P_2_4_O",""
"","","","","","html-keyboard-response","58","93187","0.0-2.0-2.0-3.0-1.0","26","1","2022-04-03 10:10:24","c79472ad15d8b617a4d57d5bf56a810f","125.63.30.11","Mozilla/5.0 (Macintosh; Intel Mac OS X 10_15_7) AppleWebKit/537.36 (KHTML, like Gecko) Chrome/100.0.4896.60 Safari/537.36","Macintosh","Chrome","100.0.4896.60","OS X","10_15_7","null","null","","","<div class=""grey"">
                <div class=""centered"">
                    <p style=""font-size: 24px""><b>???</b></p>
                </div>","P_2_4_O",""
"","","","","","html-keyboard-response","59","94568","0.0-2.0-2.0-4.0-0.0","26","1","2022-04-03 10:10:24","c79472ad15d8b617a4d57d5bf56a810f","125.63.30.11","Mozilla/5.0 (Macintosh; Intel Mac OS X 10_15_7) AppleWebKit/537.36 (KHTML, like Gecko) Chrome/100.0.4896.60 Safari/537.36","Macintosh","Chrome","100.0.4896.60","OS X","10_15_7","1378.2000000029802","j","","","
                      <div class=""row"">

                          <div class=""column"">
                              <div class=""orange""></div>
                              <div class=""leftChoiceText"">
                                  <p style=""font-size: 32px""><b>F</b></p>
                              </div>
                          </div>

                          <div class=""column"">
                              <div class=""pink""></div>
                              <div class=""rightChoiceText"">
                                  <p style=""font-size: 32px""><b>J</b></p>
                              </div>
                          </div>

                      </div>

                      <div class=""centeredTop"">
                          Which colour do you<br>
                          predict will win?
                      </div>","P_2_4_O",""
"","","","","","html-keyboard-response","60","96070","0.0-2.0-2.0-4.0-1.0","26","1","2022-04-03 10:10:24","c79472ad15d8b617a4d57d5bf56a810f","125.63.30.11","Mozilla/5.0 (Macintosh; Intel Mac OS X 10_15_7) AppleWebKit/537.36 (KHTML, like Gecko) Chrome/100.0.4896.60 Safari/537.36","Macintosh","Chrome","100.0.4896.60","OS X","10_15_7","null","null","","","<p style=""font-size:64px;"">+</p>","P_2_4_O",""
"","","","","","html-keyboard-response","61","96476","0.0-2.0-3.0-0.0-0.0","26","1","2022-04-03 10:10:24","c79472ad15d8b617a4d57d5bf56a810f","125.63.30.11","Mozilla/5.0 (Macintosh; Intel Mac OS X 10_15_7) AppleWebKit/537.36 (KHTML, like Gecko) Chrome/100.0.4896.60 Safari/537.36","Macintosh","Chrome","100.0.4896.60","OS X","10_15_7","null","null","","","<p style=""font-size:64px;"">+</p>","P_4_4_P",""
"","","","","","html-keyboard-response","62","97729","0.0-2.0-3.0-0.0-1.0","26","1","2022-04-03 10:10:24","c79472ad15d8b617a4d57d5bf56a810f","125.63.30.11","Mozilla/5.0 (Macintosh; Intel Mac OS X 10_15_7) AppleWebKit/537.36 (KHTML, like Gecko) Chrome/100.0.4896.60 Safari/537.36","Macintosh","Chrome","100.0.4896.60","OS X","10_15_7","null","null","","","
                        <div class=pink>
                        <div class=""centered"">
                            <p style=""font-size: 24px""><b>54%</b></p>
                        </div>","P_4_4_P",""
"","","","","","html-keyboard-response","63","98135","0.0-2.0-3.0-0.0-0.1","26","1","2022-04-03 10:10:24","c79472ad15d8b617a4d57d5bf56a810f","125.63.30.11","Mozilla/5.0 (Macintosh; Intel Mac OS X 10_15_7) AppleWebKit/537.36 (KHTML, like Gecko) Chrome/100.0.4896.60 Safari/537.36","Macintosh","Chrome","100.0.4896.60","OS X","10_15_7","null","null","","","<p style=""font-size:64px;"">+</p>","P_4_4_P",""
"","","","","","html-keyboard-response","64","99388","0.0-2.0-3.0-0.0-1.1","26","1","2022-04-03 10:10:24","c79472ad15d8b617a4d57d5bf56a810f","125.63.30.11","Mozilla/5.0 (Macintosh; Intel Mac OS X 10_15_7) AppleWebKit/537.36 (KHTML, like Gecko) Chrome/100.0.4896.60 Safari/537.36","Macintosh","Chrome","100.0.4896.60","OS X","10_15_7","null","null","","","
                        <div class=orange>
                        <div class=""centered"">
                            <p style=""font-size: 24px""><b>52%</b></p>
                        </div>","P_4_4_P",""
"","","","","","html-keyboard-response","65","99793","0.0-2.0-3.0-0.0-0.2","26","1","2022-04-03 10:10:24","c79472ad15d8b617a4d57d5bf56a810f","125.63.30.11","Mozilla/5.0 (Macintosh; Intel Mac OS X 10_15_7) AppleWebKit/537.36 (KHTML, like Gecko) Chrome/100.0.4896.60 Safari/537.36","Macintosh","Chrome","100.0.4896.60","OS X","10_15_7","null","null","","","<p style=""font-size:64px;"">+</p>","P_4_4_P",""
"","","","","","html-keyboard-response","66","101047","0.0-2.0-3.0-0.0-1.2","26","1","2022-04-03 10:10:24","c79472ad15d8b617a4d57d5bf56a810f","125.63.30.11","Mozilla/5.0 (Macintosh; Intel Mac OS X 10_15_7) AppleWebKit/537.36 (KHTML, like Gecko) Chrome/100.0.4896.60 Safari/537.36","Macintosh","Chrome","100.0.4896.60","OS X","10_15_7","null","null","","","
                        <div class=orange>
                        <div class=""centered"">
                            <p style=""font-size: 24px""><b>55%</b></p>
                        </div>","P_4_4_P",""
"","","","","","html-keyboard-response","67","101452","0.0-2.0-3.0-0.0-0.3","26","1","2022-04-03 10:10:24","c79472ad15d8b617a4d57d5bf56a810f","125.63.30.11","Mozilla/5.0 (Macintosh; Intel Mac OS X 10_15_7) AppleWebKit/537.36 (KHTML, like Gecko) Chrome/100.0.4896.60 Safari/537.36","Macintosh","Chrome","100.0.4896.60","OS X","10_15_7","null","null","","","<p style=""font-size:64px;"">+</p>","P_4_4_P",""
"","","","","","html-keyboard-response","68","102705","0.0-2.0-3.0-0.0-1.3","26","1","2022-04-03 10:10:24","c79472ad15d8b617a4d57d5bf56a810f","125.63.30.11","Mozilla/5.0 (Macintosh; Intel Mac OS X 10_15_7) AppleWebKit/537.36 (KHTML, like Gecko) Chrome/100.0.4896.60 Safari/537.36","Macintosh","Chrome","100.0.4896.60","OS X","10_15_7","null","null","","","
                        <div class=pink>
                        <div class=""centered"">
                            <p style=""font-size: 24px""><b>55%</b></p>
                        </div>","P_4_4_P",""
"","","","","","html-keyboard-response","69","103111","0.0-2.0-3.0-0.0-0.4","26","1","2022-04-03 10:10:24","c79472ad15d8b617a4d57d5bf56a810f","125.63.30.11","Mozilla/5.0 (Macintosh; Intel Mac OS X 10_15_7) AppleWebKit/537.36 (KHTML, like Gecko) Chrome/100.0.4896.60 Safari/537.36","Macintosh","Chrome","100.0.4896.60","OS X","10_15_7","null","null","","","<p style=""font-size:64px;"">+</p>","P_4_4_P",""
"","","","","","html-keyboard-response","70","104365","0.0-2.0-3.0-0.0-1.4","26","1","2022-04-03 10:10:24","c79472ad15d8b617a4d57d5bf56a810f","125.63.30.11","Mozilla/5.0 (Macintosh; Intel Mac OS X 10_15_7) AppleWebKit/537.36 (KHTML, like Gecko) Chrome/100.0.4896.60 Safari/537.36","Macintosh","Chrome","100.0.4896.60","OS X","10_15_7","null","null","","","
                        <div class=pink>
                        <div class=""centered"">
                            <p style=""font-size: 24px""><b>54%</b></p>
                        </div>","P_4_4_P",""
"","","","","","html-keyboard-response","71","104769","0.0-2.0-3.0-0.0-0.5","26","1","2022-04-03 10:10:24","c79472ad15d8b617a4d57d5bf56a810f","125.63.30.11","Mozilla/5.0 (Macintosh; Intel Mac OS X 10_15_7) AppleWebKit/537.36 (KHTML, like Gecko) Chrome/100.0.4896.60 Safari/537.36","Macintosh","Chrome","100.0.4896.60","OS X","10_15_7","null","null","","","<p style=""font-size:64px;"">+</p>","P_4_4_P",""
"","","","","","html-keyboard-response","72","106023","0.0-2.0-3.0-0.0-1.5","26","1","2022-04-03 10:10:24","c79472ad15d8b617a4d57d5bf56a810f","125.63.30.11","Mozilla/5.0 (Macintosh; Intel Mac OS X 10_15_7) AppleWebKit/537.36 (KHTML, like Gecko) Chrome/100.0.4896.60 Safari/537.36","Macintosh","Chrome","100.0.4896.60","OS X","10_15_7","null","null","","","
                        <div class=orange>
                        <div class=""centered"">
                            <p style=""font-size: 24px""><b>52%</b></p>
                        </div>","P_4_4_P",""
"","","","","","html-keyboard-response","73","106425","0.0-2.0-3.0-1.0-0.0","26","1","2022-04-03 10:10:24","c79472ad15d8b617a4d57d5bf56a810f","125.63.30.11","Mozilla/5.0 (Macintosh; Intel Mac OS X 10_15_7) AppleWebKit/537.36 (KHTML, like Gecko) Chrome/100.0.4896.60 Safari/537.36","Macintosh","Chrome","100.0.4896.60","OS X","10_15_7","null","null","","","<p style=""font-size:64px;"">+</p>","P_4_4_P",""
"","","","","","html-keyboard-response","74","107677","0.0-2.0-3.0-1.0-1.0","26","1","2022-04-03 10:10:24","c79472ad15d8b617a4d57d5bf56a810f","125.63.30.11","Mozilla/5.0 (Macintosh; Intel Mac OS X 10_15_7) AppleWebKit/537.36 (KHTML, like Gecko) Chrome/100.0.4896.60 Safari/537.36","Macintosh","Chrome","100.0.4896.60","OS X","10_15_7","null","null","","","
                        <div class=""pink"">
                        <div class=""centered"">
                            <p style=""font-size: 24px""><b>50%</b></p>
                        </div>","P_4_4_P",""
"","","","","","html-slider-response","75","110655","0.0-2.0-3.0-2.0","26","1","2022-04-03 10:10:24","c79472ad15d8b617a4d57d5bf56a810f","125.63.30.11","Mozilla/5.0 (Macintosh; Intel Mac OS X 10_15_7) AppleWebKit/537.36 (KHTML, like Gecko) Chrome/100.0.4896.60 Safari/537.36","Macintosh","Chrome","100.0.4896.60","OS X","10_15_7","2974.800000011921","0","","","<div style=""width: 500px; height: 100px;""><p>Place your bid for more information.</p></div>","infoBid","35"
"","","","","","html-keyboard-response","76","111063","0.0-2.0-3.0-3.0-0.0","26","1","2022-04-03 10:10:24","c79472ad15d8b617a4d57d5bf56a810f","125.63.30.11","Mozilla/5.0 (Macintosh; Intel Mac OS X 10_15_7) AppleWebKit/537.36 (KHTML, like Gecko) Chrome/100.0.4896.60 Safari/537.36","Macintosh","Chrome","100.0.4896.60","OS X","10_15_7","null","null","","","<p style=""font-size:64px;"">+</p>","P_4_4_P",""
"","","","","","html-keyboard-response","77","112316","0.0-2.0-3.0-3.0-1.0","26","1","2022-04-03 10:10:24","c79472ad15d8b617a4d57d5bf56a810f","125.63.30.11","Mozilla/5.0 (Macintosh; Intel Mac OS X 10_15_7) AppleWebKit/537.36 (KHTML, like Gecko) Chrome/100.0.4896.60 Safari/537.36","Macintosh","Chrome","100.0.4896.60","OS X","10_15_7","null","null","","","<div class=""grey"">
                <div class=""centered"">
                    <p style=""font-size: 24px""><b>???</b></p>
                </div>","P_4_4_P",""
"","","","","","html-keyboard-response","78","113178","0.0-2.0-3.0-4.0-0.0","26","1","2022-04-03 10:10:24","c79472ad15d8b617a4d57d5bf56a810f","125.63.30.11","Mozilla/5.0 (Macintosh; Intel Mac OS X 10_15_7) AppleWebKit/537.36 (KHTML, like Gecko) Chrome/100.0.4896.60 Safari/537.36","Macintosh","Chrome","100.0.4896.60","OS X","10_15_7","860.5","j","","","
                      <div class=""row"">

                          <div class=""column"">
                              <div class=""orange""></div>
                              <div class=""leftChoiceText"">
                                  <p style=""font-size: 32px""><b>F</b></p>
                              </div>
                          </div>

                          <div class=""column"">
                              <div class=""pink""></div>
                              <div class=""rightChoiceText"">
                                  <p style=""font-size: 32px""><b>J</b></p>
                              </div>
                          </div>

                      </div>

                      <div class=""centeredTop"">
                          Which colour do you<br>
                          predict will win?
                      </div>","P_4_4_P",""
"","","","","","html-keyboard-response","79","114684","0.0-2.0-3.0-4.0-1.0","26","1","2022-04-03 10:10:24","c79472ad15d8b617a4d57d5bf56a810f","125.63.30.11","Mozilla/5.0 (Macintosh; Intel Mac OS X 10_15_7) AppleWebKit/537.36 (KHTML, like Gecko) Chrome/100.0.4896.60 Safari/537.36","Macintosh","Chrome","100.0.4896.60","OS X","10_15_7","null","null","","","<p style=""font-size:64px;"">+</p>","P_4_4_P",""
"","","","","","html-keyboard-response","80","115090","0.0-2.0-4.0-0.0-0.0","26","1","2022-04-03 10:10:24","c79472ad15d8b617a4d57d5bf56a810f","125.63.30.11","Mozilla/5.0 (Macintosh; Intel Mac OS X 10_15_7) AppleWebKit/537.36 (KHTML, like Gecko) Chrome/100.0.4896.60 Safari/537.36","Macintosh","Chrome","100.0.4896.60","OS X","10_15_7","null","null","","","<p style=""font-size:64px;"">+</p>","P_6_4_O",""
"","","","","","html-keyboard-response","81","116342","0.0-2.0-4.0-0.0-1.0","26","1","2022-04-03 10:10:24","c79472ad15d8b617a4d57d5bf56a810f","125.63.30.11","Mozilla/5.0 (Macintosh; Intel Mac OS X 10_15_7) AppleWebKit/537.36 (KHTML, like Gecko) Chrome/100.0.4896.60 Safari/537.36","Macintosh","Chrome","100.0.4896.60","OS X","10_15_7","null","null","","","
                        <div class=pink>
                        <div class=""centered"">
                            <p style=""font-size: 24px""><b>54%</b></p>
                        </div>","P_6_4_O",""
"","","","","","html-keyboard-response","82","116748","0.0-2.0-4.0-0.0-0.1","26","1","2022-04-03 10:10:24","c79472ad15d8b617a4d57d5bf56a810f","125.63.30.11","Mozilla/5.0 (Macintosh; Intel Mac OS X 10_15_7) AppleWebKit/537.36 (KHTML, like Gecko) Chrome/100.0.4896.60 Safari/537.36","Macintosh","Chrome","100.0.4896.60","OS X","10_15_7","null","null","","","<p style=""font-size:64px;"">+</p>","P_6_4_O",""
"","","","","","html-keyboard-response","83","118002","0.0-2.0-4.0-0.0-1.1","26","1","2022-04-03 10:10:24","c79472ad15d8b617a4d57d5bf56a810f","125.63.30.11","Mozilla/5.0 (Macintosh; Intel Mac OS X 10_15_7) AppleWebKit/537.36 (KHTML, like Gecko) Chrome/100.0.4896.60 Safari/537.36","Macintosh","Chrome","100.0.4896.60","OS X","10_15_7","null","null","","","
                        <div class=orange>
                        <div class=""centered"">
                            <p style=""font-size: 24px""><b>52%</b></p>
                        </div>","P_6_4_O",""
"","","","","","html-keyboard-response","84","118407","0.0-2.0-4.0-0.0-0.2","26","1","2022-04-03 10:10:24","c79472ad15d8b617a4d57d5bf56a810f","125.63.30.11","Mozilla/5.0 (Macintosh; Intel Mac OS X 10_15_7) AppleWebKit/537.36 (KHTML, like Gecko) Chrome/100.0.4896.60 Safari/537.36","Macintosh","Chrome","100.0.4896.60","OS X","10_15_7","null","null","","","<p style=""font-size:64px;"">+</p>","P_6_4_O",""
"","","","","","html-keyboard-response","85","119660","0.0-2.0-4.0-0.0-1.2","26","1","2022-04-03 10:10:24","c79472ad15d8b617a4d57d5bf56a810f","125.63.30.11","Mozilla/5.0 (Macintosh; Intel Mac OS X 10_15_7) AppleWebKit/537.36 (KHTML, like Gecko) Chrome/100.0.4896.60 Safari/537.36","Macintosh","Chrome","100.0.4896.60","OS X","10_15_7","null","null","","","
                        <div class=orange>
                        <div class=""centered"">
                            <p style=""font-size: 24px""><b>53%</b></p>
                        </div>","P_6_4_O",""
"","","","","","html-keyboard-response","86","120066","0.0-2.0-4.0-0.0-0.3","26","1","2022-04-03 10:10:24","c79472ad15d8b617a4d57d5bf56a810f","125.63.30.11","Mozilla/5.0 (Macintosh; Intel Mac OS X 10_15_7) AppleWebKit/537.36 (KHTML, like Gecko) Chrome/100.0.4896.60 Safari/537.36","Macintosh","Chrome","100.0.4896.60","OS X","10_15_7","null","null","","","<p style=""font-size:64px;"">+</p>","P_6_4_O",""
"","","","","","html-keyboard-response","87","121319","0.0-2.0-4.0-0.0-1.3","26","1","2022-04-03 10:10:24","c79472ad15d8b617a4d57d5bf56a810f","125.63.30.11","Mozilla/5.0 (Macintosh; Intel Mac OS X 10_15_7) AppleWebKit/537.36 (KHTML, like Gecko) Chrome/100.0.4896.60 Safari/537.36","Macintosh","Chrome","100.0.4896.60","OS X","10_15_7","null","null","","","
                        <div class=orange>
                        <div class=""centered"">
                            <p style=""font-size: 24px""><b>52%</b></p>
                        </div>","P_6_4_O",""
"","","","","","html-keyboard-response","88","121724","0.0-2.0-4.0-0.0-0.4","26","1","2022-04-03 10:10:24","c79472ad15d8b617a4d57d5bf56a810f","125.63.30.11","Mozilla/5.0 (Macintosh; Intel Mac OS X 10_15_7) AppleWebKit/537.36 (KHTML, like Gecko) Chrome/100.0.4896.60 Safari/537.36","Macintosh","Chrome","100.0.4896.60","OS X","10_15_7","null","null","","","<p style=""font-size:64px;"">+</p>","P_6_4_O",""
"","","","","","html-keyboard-response","89","122978","0.0-2.0-4.0-0.0-1.4","26","1","2022-04-03 10:10:24","c79472ad15d8b617a4d57d5bf56a810f","125.63.30.11","Mozilla/5.0 (Macintosh; Intel Mac OS X 10_15_7) AppleWebKit/537.36 (KHTML, like Gecko) Chrome/100.0.4896.60 Safari/537.36","Macintosh","Chrome","100.0.4896.60","OS X","10_15_7","null","null","","","
                        <div class=pink>
                        <div class=""centered"">
                            <p style=""font-size: 24px""><b>54%</b></p>
                        </div>","P_6_4_O",""
"","","","","","html-keyboard-response","90","123383","0.0-2.0-4.0-0.0-0.5","26","1","2022-04-03 10:10:24","c79472ad15d8b617a4d57d5bf56a810f","125.63.30.11","Mozilla/5.0 (Macintosh; Intel Mac OS X 10_15_7) AppleWebKit/537.36 (KHTML, like Gecko) Chrome/100.0.4896.60 Safari/537.36","Macintosh","Chrome","100.0.4896.60","OS X","10_15_7","null","null","","","<p style=""font-size:64px;"">+</p>","P_6_4_O",""
"","","","","","html-keyboard-response","91","124636","0.0-2.0-4.0-0.0-1.5","26","1","2022-04-03 10:10:24","c79472ad15d8b617a4d57d5bf56a810f","125.63.30.11","Mozilla/5.0 (Macintosh; Intel Mac OS X 10_15_7) AppleWebKit/537.36 (KHTML, like Gecko) Chrome/100.0.4896.60 Safari/537.36","Macintosh","Chrome","100.0.4896.60","OS X","10_15_7","null","null","","","
                        <div class=pink>
                        <div class=""centered"">
                            <p style=""font-size: 24px""><b>55%</b></p>
                        </div>","P_6_4_O",""
"","","","","","html-keyboard-response","92","125038","0.0-2.0-4.0-1.0-0.0","26","1","2022-04-03 10:10:24","c79472ad15d8b617a4d57d5bf56a810f","125.63.30.11","Mozilla/5.0 (Macintosh; Intel Mac OS X 10_15_7) AppleWebKit/537.36 (KHTML, like Gecko) Chrome/100.0.4896.60 Safari/537.36","Macintosh","Chrome","100.0.4896.60","OS X","10_15_7","null","null","","","<p style=""font-size:64px;"">+</p>","P_6_4_O",""
"","","","","","html-keyboard-response","93","126290","0.0-2.0-4.0-1.0-1.0","26","1","2022-04-03 10:10:24","c79472ad15d8b617a4d57d5bf56a810f","125.63.30.11","Mozilla/5.0 (Macintosh; Intel Mac OS X 10_15_7) AppleWebKit/537.36 (KHTML, like Gecko) Chrome/100.0.4896.60 Safari/537.36","Macintosh","Chrome","100.0.4896.60","OS X","10_15_7","null","null","","","
                        <div class=""orange"">
                        <div class=""centered"">
                            <p style=""font-size: 24px""><b>50%</b></p>
                        </div>","P_6_4_O",""
"","","","","","html-slider-response","94","129173","0.0-2.0-4.0-2.0","26","1","2022-04-03 10:10:24","c79472ad15d8b617a4d57d5bf56a810f","125.63.30.11","Mozilla/5.0 (Macintosh; Intel Mac OS X 10_15_7) AppleWebKit/537.36 (KHTML, like Gecko) Chrome/100.0.4896.60 Safari/537.36","Macintosh","Chrome","100.0.4896.60","OS X","10_15_7","2880.7999999970198","0","","","<div style=""width: 500px; height: 100px;""><p>Place your bid for more information.</p></div>","infoBid","5"
"","","","","","html-keyboard-response","95","129578","0.0-2.0-4.0-3.0-0.0","26","1","2022-04-03 10:10:24","c79472ad15d8b617a4d57d5bf56a810f","125.63.30.11","Mozilla/5.0 (Macintosh; Intel Mac OS X 10_15_7) AppleWebKit/537.36 (KHTML, like Gecko) Chrome/100.0.4896.60 Safari/537.36","Macintosh","Chrome","100.0.4896.60","OS X","10_15_7","null","null","","","<p style=""font-size:64px;"">+</p>","P_6_4_O",""
"","","","","","html-keyboard-response","96","130834","0.0-2.0-4.0-3.0-1.0","26","1","2022-04-03 10:10:24","c79472ad15d8b617a4d57d5bf56a810f","125.63.30.11","Mozilla/5.0 (Macintosh; Intel Mac OS X 10_15_7) AppleWebKit/537.36 (KHTML, like Gecko) Chrome/100.0.4896.60 Safari/537.36","Macintosh","Chrome","100.0.4896.60","OS X","10_15_7","null","null","","","<div class=""grey"">
                <div class=""centered"">
                    <p style=""font-size: 24px""><b>???</b></p>
                </div>","P_6_4_O",""
"","","","","","html-keyboard-response","97","132091","0.0-2.0-4.0-4.0-0.0","26","1","2022-04-03 10:10:24","c79472ad15d8b617a4d57d5bf56a810f","125.63.30.11","Mozilla/5.0 (Macintosh; Intel Mac OS X 10_15_7) AppleWebKit/537.36 (KHTML, like Gecko) Chrome/100.0.4896.60 Safari/537.36","Macintosh","Chrome","100.0.4896.60","OS X","10_15_7","1254.7000000029802","j","","","
                      <div class=""row"">

                          <div class=""column"">
                              <div class=""orange""></div>
                              <div class=""leftChoiceText"">
                                  <p style=""font-size: 32px""><b>F</b></p>
                              </div>
                          </div>

                          <div class=""column"">
                              <div class=""pink""></div>
                              <div class=""rightChoiceText"">
                                  <p style=""font-size: 32px""><b>J</b></p>
                              </div>
                          </div>

                      </div>

                      <div class=""centeredTop"">
                          Which colour do you<br>
                          predict will win?
                      </div>","P_6_4_O",""
"","","","","","html-keyboard-response","98","133597","0.0-2.0-4.0-4.0-1.0","26","1","2022-04-03 10:10:24","c79472ad15d8b617a4d57d5bf56a810f","125.63.30.11","Mozilla/5.0 (Macintosh; Intel Mac OS X 10_15_7) AppleWebKit/537.36 (KHTML, like Gecko) Chrome/100.0.4896.60 Safari/537.36","Macintosh","Chrome","100.0.4896.60","OS X","10_15_7","null","null","","","<p style=""font-size:64px;"">+</p>","P_6_4_O",""
"","","","","","html-keyboard-response","99","134002","0.0-2.0-5.0-0.0-0.0","26","1","2022-04-03 10:10:24","c79472ad15d8b617a4d57d5bf56a810f","125.63.30.11","Mozilla/5.0 (Macintosh; Intel Mac OS X 10_15_7) AppleWebKit/537.36 (KHTML, like Gecko) Chrome/100.0.4896.60 Safari/537.36","Macintosh","Chrome","100.0.4896.60","OS X","10_15_7","null","null","","","<p style=""font-size:64px;"">+</p>","P_2_1_P",""
"","","","","","html-keyboard-response","100","135255","0.0-2.0-5.0-0.0-1.0","26","1","2022-04-03 10:10:24","c79472ad15d8b617a4d57d5bf56a810f","125.63.30.11","Mozilla/5.0 (Macintosh; Intel Mac OS X 10_15_7) AppleWebKit/537.36 (KHTML, like Gecko) Chrome/100.0.4896.60 Safari/537.36","Macintosh","Chrome","100.0.4896.60","OS X","10_15_7","null","null","","","
                        <div class=orange>
                        <div class=""centered"">
                            <p style=""font-size: 24px""><b>52%</b></p>
                        </div>","P_2_1_P",""
"","","","","","html-keyboard-response","101","135661","0.0-2.0-5.0-0.0-0.1","26","1","2022-04-03 10:10:24","c79472ad15d8b617a4d57d5bf56a810f","125.63.30.11","Mozilla/5.0 (Macintosh; Intel Mac OS X 10_15_7) AppleWebKit/537.36 (KHTML, like Gecko) Chrome/100.0.4896.60 Safari/537.36","Macintosh","Chrome","100.0.4896.60","OS X","10_15_7","null","null","","","<p style=""font-size:64px;"">+</p>","P_2_1_P",""
"","","","","","html-keyboard-response","102","136914","0.0-2.0-5.0-0.0-1.1","26","1","2022-04-03 10:10:24","c79472ad15d8b617a4d57d5bf56a810f","125.63.30.11","Mozilla/5.0 (Macintosh; Intel Mac OS X 10_15_7) AppleWebKit/537.36 (KHTML, like Gecko) Chrome/100.0.4896.60 Safari/537.36","Macintosh","Chrome","100.0.4896.60","OS X","10_15_7","null","null","","","
                        <div class=orange>
                        <div class=""centered"">
                            <p style=""font-size: 24px""><b>51%</b></p>
                        </div>","P_2_1_P",""
"","","","","","html-keyboard-response","103","137320","0.0-2.0-5.0-0.0-0.2","26","1","2022-04-03 10:10:24","c79472ad15d8b617a4d57d5bf56a810f","125.63.30.11","Mozilla/5.0 (Macintosh; Intel Mac OS X 10_15_7) AppleWebKit/537.36 (KHTML, like Gecko) Chrome/100.0.4896.60 Safari/537.36","Macintosh","Chrome","100.0.4896.60","OS X","10_15_7","null","null","","","<p style=""font-size:64px;"">+</p>","P_2_1_P",""
"","","","","","html-keyboard-response","104","138578","0.0-2.0-5.0-0.0-1.2","26","1","2022-04-03 10:10:24","c79472ad15d8b617a4d57d5bf56a810f","125.63.30.11","Mozilla/5.0 (Macintosh; Intel Mac OS X 10_15_7) AppleWebKit/537.36 (KHTML, like Gecko) Chrome/100.0.4896.60 Safari/537.36","Macintosh","Chrome","100.0.4896.60","OS X","10_15_7","null","null","","","
                        <div class=orange>
                        <div class=""centered"">
                            <p style=""font-size: 24px""><b>55%</b></p>
                        </div>","P_2_1_P",""
"","","","","","html-keyboard-response","105","138984","0.0-2.0-5.0-0.0-0.3","26","1","2022-04-03 10:10:24","c79472ad15d8b617a4d57d5bf56a810f","125.63.30.11","Mozilla/5.0 (Macintosh; Intel Mac OS X 10_15_7) AppleWebKit/537.36 (KHTML, like Gecko) Chrome/100.0.4896.60 Safari/537.36","Macintosh","Chrome","100.0.4896.60","OS X","10_15_7","null","null","","","<p style=""font-size:64px;"">+</p>","P_2_1_P",""
"","","","","","html-keyboard-response","106","140237","0.0-2.0-5.0-0.0-1.3","26","1","2022-04-03 10:10:24","c79472ad15d8b617a4d57d5bf56a810f","125.63.30.11","Mozilla/5.0 (Macintosh; Intel Mac OS X 10_15_7) AppleWebKit/537.36 (KHTML, like Gecko) Chrome/100.0.4896.60 Safari/537.36","Macintosh","Chrome","100.0.4896.60","OS X","10_15_7","null","null","","","
                        <div class=pink>
                        <div class=""centered"">
                            <p style=""font-size: 24px""><b>54%</b></p>
                        </div>","P_2_1_P",""
"","","","","","html-keyboard-response","107","140640","0.0-2.0-5.0-0.0-0.4","26","1","2022-04-03 10:10:24","c79472ad15d8b617a4d57d5bf56a810f","125.63.30.11","Mozilla/5.0 (Macintosh; Intel Mac OS X 10_15_7) AppleWebKit/537.36 (KHTML, like Gecko) Chrome/100.0.4896.60 Safari/537.36","Macintosh","Chrome","100.0.4896.60","OS X","10_15_7","null","null","","","<p style=""font-size:64px;"">+</p>","P_2_1_P",""
"","","","","","html-keyboard-response","108","141896","0.0-2.0-5.0-0.0-1.4","26","1","2022-04-03 10:10:24","c79472ad15d8b617a4d57d5bf56a810f","125.63.30.11","Mozilla/5.0 (Macintosh; Intel Mac OS X 10_15_7) AppleWebKit/537.36 (KHTML, like Gecko) Chrome/100.0.4896.60 Safari/537.36","Macintosh","Chrome","100.0.4896.60","OS X","10_15_7","null","null","","","
                        <div class=pink>
                        <div class=""centered"">
                            <p style=""font-size: 24px""><b>54%</b></p>
                        </div>","P_2_1_P",""
"","","","","","html-keyboard-response","109","142301","0.0-2.0-5.0-0.0-0.5","26","1","2022-04-03 10:10:24","c79472ad15d8b617a4d57d5bf56a810f","125.63.30.11","Mozilla/5.0 (Macintosh; Intel Mac OS X 10_15_7) AppleWebKit/537.36 (KHTML, like Gecko) Chrome/100.0.4896.60 Safari/537.36","Macintosh","Chrome","100.0.4896.60","OS X","10_15_7","null","null","","","<p style=""font-size:64px;"">+</p>","P_2_1_P",""
"","","","","","html-keyboard-response","110","143554","0.0-2.0-5.0-0.0-1.5","26","1","2022-04-03 10:10:24","c79472ad15d8b617a4d57d5bf56a810f","125.63.30.11","Mozilla/5.0 (Macintosh; Intel Mac OS X 10_15_7) AppleWebKit/537.36 (KHTML, like Gecko) Chrome/100.0.4896.60 Safari/537.36","Macintosh","Chrome","100.0.4896.60","OS X","10_15_7","null","null","","","
                        <div class=pink>
                        <div class=""centered"">
                            <p style=""font-size: 24px""><b>52%</b></p>
                        </div>","P_2_1_P",""
"","","","","","html-keyboard-response","111","143960","0.0-2.0-5.0-1.0-0.0","26","1","2022-04-03 10:10:24","c79472ad15d8b617a4d57d5bf56a810f","125.63.30.11","Mozilla/5.0 (Macintosh; Intel Mac OS X 10_15_7) AppleWebKit/537.36 (KHTML, like Gecko) Chrome/100.0.4896.60 Safari/537.36","Macintosh","Chrome","100.0.4896.60","OS X","10_15_7","null","null","","","<p style=""font-size:64px;"">+</p>","P_2_1_P",""
"","","","","","html-keyboard-response","112","145215","0.0-2.0-5.0-1.0-1.0","26","1","2022-04-03 10:10:24","c79472ad15d8b617a4d57d5bf56a810f","125.63.30.11","Mozilla/5.0 (Macintosh; Intel Mac OS X 10_15_7) AppleWebKit/537.36 (KHTML, like Gecko) Chrome/100.0.4896.60 Safari/537.36","Macintosh","Chrome","100.0.4896.60","OS X","10_15_7","null","null","","","
                        <div class=""pink"">
                        <div class=""centered"">
                            <p style=""font-size: 24px""><b>50%</b></p>
                        </div>","P_2_1_P",""
"","","","","","html-slider-response","113","148836","0.0-2.0-5.0-2.0","26","1","2022-04-03 10:10:24","c79472ad15d8b617a4d57d5bf56a810f","125.63.30.11","Mozilla/5.0 (Macintosh; Intel Mac OS X 10_15_7) AppleWebKit/537.36 (KHTML, like Gecko) Chrome/100.0.4896.60 Safari/537.36","Macintosh","Chrome","100.0.4896.60","OS X","10_15_7","3619.4000000059605","0","","","<div style=""width: 500px; height: 100px;""><p>Place your bid for more information.</p></div>","infoBid","17"
"","","","","","html-keyboard-response","114","149240","0.0-2.0-5.0-3.0-0.0","26","1","2022-04-03 10:10:24","c79472ad15d8b617a4d57d5bf56a810f","125.63.30.11","Mozilla/5.0 (Macintosh; Intel Mac OS X 10_15_7) AppleWebKit/537.36 (KHTML, like Gecko) Chrome/100.0.4896.60 Safari/537.36","Macintosh","Chrome","100.0.4896.60","OS X","10_15_7","null","null","","","<p style=""font-size:64px;"">+</p>","P_2_1_P",""
"","","","","","html-keyboard-response","115","150494","0.0-2.0-5.0-3.0-1.0","26","1","2022-04-03 10:10:24","c79472ad15d8b617a4d57d5bf56a810f","125.63.30.11","Mozilla/5.0 (Macintosh; Intel Mac OS X 10_15_7) AppleWebKit/537.36 (KHTML, like Gecko) Chrome/100.0.4896.60 Safari/537.36","Macintosh","Chrome","100.0.4896.60","OS X","10_15_7","null","null","","","<div class=""grey"">
                <div class=""centered"">
                    <p style=""font-size: 24px""><b>???</b></p>
                </div>","P_2_1_P",""
"","","","","","html-keyboard-response","116","152093","0.0-2.0-5.0-4.0-0.0","26","1","2022-04-03 10:10:24","c79472ad15d8b617a4d57d5bf56a810f","125.63.30.11","Mozilla/5.0 (Macintosh; Intel Mac OS X 10_15_7) AppleWebKit/537.36 (KHTML, like Gecko) Chrome/100.0.4896.60 Safari/537.36","Macintosh","Chrome","100.0.4896.60","OS X","10_15_7","1596.300000011921","j","","","
                      <div class=""row"">

                          <div class=""column"">
                              <div class=""orange""></div>
                              <div class=""leftChoiceText"">
                                  <p style=""font-size: 32px""><b>F</b></p>
                              </div>
                          </div>

                          <div class=""column"">
                              <div class=""pink""></div>
                              <div class=""rightChoiceText"">
                                  <p style=""font-size: 32px""><b>J</b></p>
                              </div>
                          </div>

                      </div>

                      <div class=""centeredTop"">
                          Which colour do you<br>
                          predict will win?
                      </div>","P_2_1_P",""
"","","","","","html-keyboard-response","117","153597","0.0-2.0-5.0-4.0-1.0","26","1","2022-04-03 10:10:24","c79472ad15d8b617a4d57d5bf56a810f","125.63.30.11","Mozilla/5.0 (Macintosh; Intel Mac OS X 10_15_7) AppleWebKit/537.36 (KHTML, like Gecko) Chrome/100.0.4896.60 Safari/537.36","Macintosh","Chrome","100.0.4896.60","OS X","10_15_7","null","null","","","<p style=""font-size:64px;"">+</p>","P_2_1_P",""
"","","","","","html-keyboard-response","118","154003","0.0-2.0-6.0-0.0-0.0","26","1","2022-04-03 10:10:24","c79472ad15d8b617a4d57d5bf56a810f","125.63.30.11","Mozilla/5.0 (Macintosh; Intel Mac OS X 10_15_7) AppleWebKit/537.36 (KHTML, like Gecko) Chrome/100.0.4896.60 Safari/537.36","Macintosh","Chrome","100.0.4896.60","OS X","10_15_7","null","null","","","<p style=""font-size:64px;"">+</p>","O_4_4_O",""
"","","","","","html-keyboard-response","119","155256","0.0-2.0-6.0-0.0-1.0","26","1","2022-04-03 10:10:24","c79472ad15d8b617a4d57d5bf56a810f","125.63.30.11","Mozilla/5.0 (Macintosh; Intel Mac OS X 10_15_7) AppleWebKit/537.36 (KHTML, like Gecko) Chrome/100.0.4896.60 Safari/537.36","Macintosh","Chrome","100.0.4896.60","OS X","10_15_7","null","null","","","
                        <div class=orange>
                        <div class=""centered"">
                            <p style=""font-size: 24px""><b>54%</b></p>
                        </div>","O_4_4_O",""
"","","","","","html-keyboard-response","120","155661","0.0-2.0-6.0-0.0-0.1","26","1","2022-04-03 10:10:24","c79472ad15d8b617a4d57d5bf56a810f","125.63.30.11","Mozilla/5.0 (Macintosh; Intel Mac OS X 10_15_7) AppleWebKit/537.36 (KHTML, like Gecko) Chrome/100.0.4896.60 Safari/537.36","Macintosh","Chrome","100.0.4896.60","OS X","10_15_7","null","null","","","<p style=""font-size:64px;"">+</p>","O_4_4_O",""
"","","","","","html-keyboard-response","121","156915","0.0-2.0-6.0-0.0-1.1","26","1","2022-04-03 10:10:24","c79472ad15d8b617a4d57d5bf56a810f","125.63.30.11","Mozilla/5.0 (Macintosh; Intel Mac OS X 10_15_7) AppleWebKit/537.36 (KHTML, like Gecko) Chrome/100.0.4896.60 Safari/537.36","Macintosh","Chrome","100.0.4896.60","OS X","10_15_7","null","null","","","
                        <div class=orange>
                        <div class=""centered"">
                            <p style=""font-size: 24px""><b>54%</b></p>
                        </div>","O_4_4_O",""
"","","","","","html-keyboard-response","122","157320","0.0-2.0-6.0-0.0-0.2","26","1","2022-04-03 10:10:24","c79472ad15d8b617a4d57d5bf56a810f","125.63.30.11","Mozilla/5.0 (Macintosh; Intel Mac OS X 10_15_7) AppleWebKit/537.36 (KHTML, like Gecko) Chrome/100.0.4896.60 Safari/537.36","Macintosh","Chrome","100.0.4896.60","OS X","10_15_7","null","null","","","<p style=""font-size:64px;"">+</p>","O_4_4_O",""
"","","","","","html-keyboard-response","123","158579","0.0-2.0-6.0-0.0-1.2","26","1","2022-04-03 10:10:24","c79472ad15d8b617a4d57d5bf56a810f","125.63.30.11","Mozilla/5.0 (Macintosh; Intel Mac OS X 10_15_7) AppleWebKit/537.36 (KHTML, like Gecko) Chrome/100.0.4896.60 Safari/537.36","Macintosh","Chrome","100.0.4896.60","OS X","10_15_7","null","null","","","
                        <div class=orange>
                        <div class=""centered"">
                            <p style=""font-size: 24px""><b>55%</b></p>
                        </div>","O_4_4_O",""
"","","","","","html-keyboard-response","124","158984","0.0-2.0-6.0-0.0-0.3","26","1","2022-04-03 10:10:24","c79472ad15d8b617a4d57d5bf56a810f","125.63.30.11","Mozilla/5.0 (Macintosh; Intel Mac OS X 10_15_7) AppleWebKit/537.36 (KHTML, like Gecko) Chrome/100.0.4896.60 Safari/537.36","Macintosh","Chrome","100.0.4896.60","OS X","10_15_7","null","null","","","<p style=""font-size:64px;"">+</p>","O_4_4_O",""
"","","","","","html-keyboard-response","125","160237","0.0-2.0-6.0-0.0-1.3","26","1","2022-04-03 10:10:24","c79472ad15d8b617a4d57d5bf56a810f","125.63.30.11","Mozilla/5.0 (Macintosh; Intel Mac OS X 10_15_7) AppleWebKit/537.36 (KHTML, like Gecko) Chrome/100.0.4896.60 Safari/537.36","Macintosh","Chrome","100.0.4896.60","OS X","10_15_7","null","null","","","
                        <div class=pink>
                        <div class=""centered"">
                            <p style=""font-size: 24px""><b>52%</b></p>
                        </div>","O_4_4_O",""
"","","","","","html-keyboard-response","126","160643","0.0-2.0-6.0-0.0-0.4","26","1","2022-04-03 10:10:24","c79472ad15d8b617a4d57d5bf56a810f","125.63.30.11","Mozilla/5.0 (Macintosh; Intel Mac OS X 10_15_7) AppleWebKit/537.36 (KHTML, like Gecko) Chrome/100.0.4896.60 Safari/537.36","Macintosh","Chrome","100.0.4896.60","OS X","10_15_7","null","null","","","<p style=""font-size:64px;"">+</p>","O_4_4_O",""
"","","","","","html-keyboard-response","127","161896","0.0-2.0-6.0-0.0-1.4","26","1","2022-04-03 10:10:24","c79472ad15d8b617a4d57d5bf56a810f","125.63.30.11","Mozilla/5.0 (Macintosh; Intel Mac OS X 10_15_7) AppleWebKit/537.36 (KHTML, like Gecko) Chrome/100.0.4896.60 Safari/537.36","Macintosh","Chrome","100.0.4896.60","OS X","10_15_7","null","null","","","
                        <div class=pink>
                        <div class=""centered"">
                            <p style=""font-size: 24px""><b>55%</b></p>
                        </div>","O_4_4_O",""
"","","","","","html-keyboard-response","128","162299","0.0-2.0-6.0-0.0-0.5","26","1","2022-04-03 10:10:24","c79472ad15d8b617a4d57d5bf56a810f","125.63.30.11","Mozilla/5.0 (Macintosh; Intel Mac OS X 10_15_7) AppleWebKit/537.36 (KHTML, like Gecko) Chrome/100.0.4896.60 Safari/537.36","Macintosh","Chrome","100.0.4896.60","OS X","10_15_7","null","null","","","<p style=""font-size:64px;"">+</p>","O_4_4_O",""
"","","","","","html-keyboard-response","129","163555","0.0-2.0-6.0-0.0-1.5","26","1","2022-04-03 10:10:24","c79472ad15d8b617a4d57d5bf56a810f","125.63.30.11","Mozilla/5.0 (Macintosh; Intel Mac OS X 10_15_7) AppleWebKit/537.36 (KHTML, like Gecko) Chrome/100.0.4896.60 Safari/537.36","Macintosh","Chrome","100.0.4896.60","OS X","10_15_7","null","null","","","
                        <div class=pink>
                        <div class=""centered"">
                            <p style=""font-size: 24px""><b>52%</b></p>
                        </div>","O_4_4_O",""
"","","","","","html-keyboard-response","130","163960","0.0-2.0-6.0-1.0-0.0","26","1","2022-04-03 10:10:24","c79472ad15d8b617a4d57d5bf56a810f","125.63.30.11","Mozilla/5.0 (Macintosh; Intel Mac OS X 10_15_7) AppleWebKit/537.36 (KHTML, like Gecko) Chrome/100.0.4896.60 Safari/537.36","Macintosh","Chrome","100.0.4896.60","OS X","10_15_7","null","null","","","<p style=""font-size:64px;"">+</p>","O_4_4_O",""
"","","","","","html-keyboard-response","131","165216","0.0-2.0-6.0-1.0-1.0","26","1","2022-04-03 10:10:24","c79472ad15d8b617a4d57d5bf56a810f","125.63.30.11","Mozilla/5.0 (Macintosh; Intel Mac OS X 10_15_7) AppleWebKit/537.36 (KHTML, like Gecko) Chrome/100.0.4896.60 Safari/537.36","Macintosh","Chrome","100.0.4896.60","OS X","10_15_7","null","null","","","
                        <div class=""orange"">
                        <div class=""centered"">
                            <p style=""font-size: 24px""><b>50%</b></p>
                        </div>","O_4_4_O",""
"","","","","","html-slider-response","132","167976","0.0-2.0-6.0-2.0","26","1","2022-04-03 10:10:24","c79472ad15d8b617a4d57d5bf56a810f","125.63.30.11","Mozilla/5.0 (Macintosh; Intel Mac OS X 10_15_7) AppleWebKit/537.36 (KHTML, like Gecko) Chrome/100.0.4896.60 Safari/537.36","Macintosh","Chrome","100.0.4896.60","OS X","10_15_7","2756.2000000029802","0","","","<div style=""width: 500px; height: 100px;""><p>Place your bid for more information.</p></div>","infoBid","18"
"","","","","","html-keyboard-response","133","168382","0.0-2.0-6.0-3.0-0.0","26","1","2022-04-03 10:10:24","c79472ad15d8b617a4d57d5bf56a810f","125.63.30.11","Mozilla/5.0 (Macintosh; Intel Mac OS X 10_15_7) AppleWebKit/537.36 (KHTML, like Gecko) Chrome/100.0.4896.60 Safari/537.36","Macintosh","Chrome","100.0.4896.60","OS X","10_15_7","null","null","","","<p style=""font-size:64px;"">+</p>","O_4_4_O",""
"","","","","","html-keyboard-response","134","169635","0.0-2.0-6.0-3.0-1.0","26","1","2022-04-03 10:10:24","c79472ad15d8b617a4d57d5bf56a810f","125.63.30.11","Mozilla/5.0 (Macintosh; Intel Mac OS X 10_15_7) AppleWebKit/537.36 (KHTML, like Gecko) Chrome/100.0.4896.60 Safari/537.36","Macintosh","Chrome","100.0.4896.60","OS X","10_15_7","null","null","","","<div class=""grey"">
                <div class=""centered"">
                    <p style=""font-size: 24px""><b>???</b></p>
                </div>","O_4_4_O",""
"","","","","","html-keyboard-response","135","170570","0.0-2.0-6.0-4.0-0.0","26","1","2022-04-03 10:10:24","c79472ad15d8b617a4d57d5bf56a810f","125.63.30.11","Mozilla/5.0 (Macintosh; Intel Mac OS X 10_15_7) AppleWebKit/537.36 (KHTML, like Gecko) Chrome/100.0.4896.60 Safari/537.36","Macintosh","Chrome","100.0.4896.60","OS X","10_15_7","933.4000000059605","f","","","
                      <div class=""row"">

                          <div class=""column"">
                              <div class=""orange""></div>
                              <div class=""leftChoiceText"">
                                  <p style=""font-size: 32px""><b>F</b></p>
                              </div>
                          </div>

                          <div class=""column"">
                              <div class=""pink""></div>
                              <div class=""rightChoiceText"">
                                  <p style=""font-size: 32px""><b>J</b></p>
                              </div>
                          </div>

                      </div>

                      <div class=""centeredTop"">
                          Which colour do you<br>
                          predict will win?
                      </div>","O_4_4_O",""
"","","","","","html-keyboard-response","136","172073","0.0-2.0-6.0-4.0-1.0","26","1","2022-04-03 10:10:24","c79472ad15d8b617a4d57d5bf56a810f","125.63.30.11","Mozilla/5.0 (Macintosh; Intel Mac OS X 10_15_7) AppleWebKit/537.36 (KHTML, like Gecko) Chrome/100.0.4896.60 Safari/537.36","Macintosh","Chrome","100.0.4896.60","OS X","10_15_7","null","null","","","<p style=""font-size:64px;"">+</p>","O_4_4_O",""
"","","","","","html-keyboard-response","137","172478","0.0-2.0-7.0-0.0-0.0","26","1","2022-04-03 10:10:24","c79472ad15d8b617a4d57d5bf56a810f","125.63.30.11","Mozilla/5.0 (Macintosh; Intel Mac OS X 10_15_7) AppleWebKit/537.36 (KHTML, like Gecko) Chrome/100.0.4896.60 Safari/537.36","Macintosh","Chrome","100.0.4896.60","OS X","10_15_7","null","null","","","<p style=""font-size:64px;"">+</p>","O_2_3_P",""
"","","","","","html-keyboard-response","138","173731","0.0-2.0-7.0-0.0-1.0","26","1","2022-04-03 10:10:24","c79472ad15d8b617a4d57d5bf56a810f","125.63.30.11","Mozilla/5.0 (Macintosh; Intel Mac OS X 10_15_7) AppleWebKit/537.36 (KHTML, like Gecko) Chrome/100.0.4896.60 Safari/537.36","Macintosh","Chrome","100.0.4896.60","OS X","10_15_7","null","null","","","
                        <div class=pink>
                        <div class=""centered"">
                            <p style=""font-size: 24px""><b>52%</b></p>
                        </div>","O_2_3_P",""
"","","","","","html-keyboard-response","139","174138","0.0-2.0-7.0-0.0-0.1","26","1","2022-04-03 10:10:24","c79472ad15d8b617a4d57d5bf56a810f","125.63.30.11","Mozilla/5.0 (Macintosh; Intel Mac OS X 10_15_7) AppleWebKit/537.36 (KHTML, like Gecko) Chrome/100.0.4896.60 Safari/537.36","Macintosh","Chrome","100.0.4896.60","OS X","10_15_7","null","null","","","<p style=""font-size:64px;"">+</p>","O_2_3_P",""
"","","","","","html-keyboard-response","140","175390","0.0-2.0-7.0-0.0-1.1","26","1","2022-04-03 10:10:24","c79472ad15d8b617a4d57d5bf56a810f","125.63.30.11","Mozilla/5.0 (Macintosh; Intel Mac OS X 10_15_7) AppleWebKit/537.36 (KHTML, like Gecko) Chrome/100.0.4896.60 Safari/537.36","Macintosh","Chrome","100.0.4896.60","OS X","10_15_7","null","null","","","
                        <div class=pink>
                        <div class=""centered"">
                            <p style=""font-size: 24px""><b>52%</b></p>
                        </div>","O_2_3_P",""
"","","","","","html-keyboard-response","141","175795","0.0-2.0-7.0-0.0-0.2","26","1","2022-04-03 10:10:24","c79472ad15d8b617a4d57d5bf56a810f","125.63.30.11","Mozilla/5.0 (Macintosh; Intel Mac OS X 10_15_7) AppleWebKit/537.36 (KHTML, like Gecko) Chrome/100.0.4896.60 Safari/537.36","Macintosh","Chrome","100.0.4896.60","OS X","10_15_7","null","null","","","<p style=""font-size:64px;"">+</p>","O_2_3_P",""
"","","","","","html-keyboard-response","142","177049","0.0-2.0-7.0-0.0-1.2","26","1","2022-04-03 10:10:24","c79472ad15d8b617a4d57d5bf56a810f","125.63.30.11","Mozilla/5.0 (Macintosh; Intel Mac OS X 10_15_7) AppleWebKit/537.36 (KHTML, like Gecko) Chrome/100.0.4896.60 Safari/537.36","Macintosh","Chrome","100.0.4896.60","OS X","10_15_7","null","null","","","
                        <div class=orange>
                        <div class=""centered"">
                            <p style=""font-size: 24px""><b>53%</b></p>
                        </div>","O_2_3_P",""
"","","","","","html-keyboard-response","143","177455","0.0-2.0-7.0-0.0-0.3","26","1","2022-04-03 10:10:24","c79472ad15d8b617a4d57d5bf56a810f","125.63.30.11","Mozilla/5.0 (Macintosh; Intel Mac OS X 10_15_7) AppleWebKit/537.36 (KHTML, like Gecko) Chrome/100.0.4896.60 Safari/537.36","Macintosh","Chrome","100.0.4896.60","OS X","10_15_7","null","null","","","<p style=""font-size:64px;"">+</p>","O_2_3_P",""
"","","","","","html-keyboard-response","144","178707","0.0-2.0-7.0-0.0-1.3","26","1","2022-04-03 10:10:24","c79472ad15d8b617a4d57d5bf56a810f","125.63.30.11","Mozilla/5.0 (Macintosh; Intel Mac OS X 10_15_7) AppleWebKit/537.36 (KHTML, like Gecko) Chrome/100.0.4896.60 Safari/537.36","Macintosh","Chrome","100.0.4896.60","OS X","10_15_7","null","null","","","
                        <div class=pink>
                        <div class=""centered"">
                            <p style=""font-size: 24px""><b>54%</b></p>
                        </div>","O_2_3_P",""
"","","","","","html-keyboard-response","145","179113","0.0-2.0-7.0-0.0-0.4","26","1","2022-04-03 10:10:24","c79472ad15d8b617a4d57d5bf56a810f","125.63.30.11","Mozilla/5.0 (Macintosh; Intel Mac OS X 10_15_7) AppleWebKit/537.36 (KHTML, like Gecko) Chrome/100.0.4896.60 Safari/537.36","Macintosh","Chrome","100.0.4896.60","OS X","10_15_7","null","null","","","<p style=""font-size:64px;"">+</p>","O_2_3_P",""
"","","","","","html-keyboard-response","146","180366","0.0-2.0-7.0-0.0-1.4","26","1","2022-04-03 10:10:24","c79472ad15d8b617a4d57d5bf56a810f","125.63.30.11","Mozilla/5.0 (Macintosh; Intel Mac OS X 10_15_7) AppleWebKit/537.36 (KHTML, like Gecko) Chrome/100.0.4896.60 Safari/537.36","Macintosh","Chrome","100.0.4896.60","OS X","10_15_7","null","null","","","
                        <div class=orange>
                        <div class=""centered"">
                            <p style=""font-size: 24px""><b>54%</b></p>
                        </div>","O_2_3_P",""
"","","","","","html-keyboard-response","147","180771","0.0-2.0-7.0-0.0-0.5","26","1","2022-04-03 10:10:24","c79472ad15d8b617a4d57d5bf56a810f","125.63.30.11","Mozilla/5.0 (Macintosh; Intel Mac OS X 10_15_7) AppleWebKit/537.36 (KHTML, like Gecko) Chrome/100.0.4896.60 Safari/537.36","Macintosh","Chrome","100.0.4896.60","OS X","10_15_7","null","null","","","<p style=""font-size:64px;"">+</p>","O_2_3_P",""
"","","","","","html-keyboard-response","148","182026","0.0-2.0-7.0-0.0-1.5","26","1","2022-04-03 10:10:24","c79472ad15d8b617a4d57d5bf56a810f","125.63.30.11","Mozilla/5.0 (Macintosh; Intel Mac OS X 10_15_7) AppleWebKit/537.36 (KHTML, like Gecko) Chrome/100.0.4896.60 Safari/537.36","Macintosh","Chrome","100.0.4896.60","OS X","10_15_7","null","null","","","
                        <div class=orange>
                        <div class=""centered"">
                            <p style=""font-size: 24px""><b>53%</b></p>
                        </div>","O_2_3_P",""
"","","","","","html-keyboard-response","149","182428","0.0-2.0-7.0-1.0-0.0","26","1","2022-04-03 10:10:24","c79472ad15d8b617a4d57d5bf56a810f","125.63.30.11","Mozilla/5.0 (Macintosh; Intel Mac OS X 10_15_7) AppleWebKit/537.36 (KHTML, like Gecko) Chrome/100.0.4896.60 Safari/537.36","Macintosh","Chrome","100.0.4896.60","OS X","10_15_7","null","null","","","<p style=""font-size:64px;"">+</p>","O_2_3_P",""
"","","","","","html-keyboard-response","150","183684","0.0-2.0-7.0-1.0-1.0","26","1","2022-04-03 10:10:24","c79472ad15d8b617a4d57d5bf56a810f","125.63.30.11","Mozilla/5.0 (Macintosh; Intel Mac OS X 10_15_7) AppleWebKit/537.36 (KHTML, like Gecko) Chrome/100.0.4896.60 Safari/537.36","Macintosh","Chrome","100.0.4896.60","OS X","10_15_7","null","null","","","
                        <div class=""pink"">
                        <div class=""centered"">
                            <p style=""font-size: 24px""><b>50%</b></p>
                        </div>","O_2_3_P",""
"","","","","","html-slider-response","151","186187","0.0-2.0-7.0-2.0","26","1","2022-04-03 10:10:24","c79472ad15d8b617a4d57d5bf56a810f","125.63.30.11","Mozilla/5.0 (Macintosh; Intel Mac OS X 10_15_7) AppleWebKit/537.36 (KHTML, like Gecko) Chrome/100.0.4896.60 Safari/537.36","Macintosh","Chrome","100.0.4896.60","OS X","10_15_7","2500.5","1","","","<div style=""width: 500px; height: 100px;""><p>Place your bid for more information.</p></div>","infoBid","10"
"","","","","","html-keyboard-response","152","186596","0.0-2.0-7.0-3.0-0.0","26","1","2022-04-03 10:10:24","c79472ad15d8b617a4d57d5bf56a810f","125.63.30.11","Mozilla/5.0 (Macintosh; Intel Mac OS X 10_15_7) AppleWebKit/537.36 (KHTML, like Gecko) Chrome/100.0.4896.60 Safari/537.36","Macintosh","Chrome","100.0.4896.60","OS X","10_15_7","null","null","","","<p style=""font-size:64px;"">+</p>","O_2_3_P",""
"","","","","","html-keyboard-response","153","187849","0.0-2.0-7.0-3.0-1.0","26","1","2022-04-03 10:10:24","c79472ad15d8b617a4d57d5bf56a810f","125.63.30.11","Mozilla/5.0 (Macintosh; Intel Mac OS X 10_15_7) AppleWebKit/537.36 (KHTML, like Gecko) Chrome/100.0.4896.60 Safari/537.36","Macintosh","Chrome","100.0.4896.60","OS X","10_15_7","null","null","","","<div class=""grey"">
                <div class=""centered"">
                    <p style=""font-size: 24px""><b>???</b></p>
                </div>","O_2_3_P",""
"","","","","","html-keyboard-response","154","189209","0.0-2.0-7.0-4.0-0.0","26","1","2022-04-03 10:10:24","c79472ad15d8b617a4d57d5bf56a810f","125.63.30.11","Mozilla/5.0 (Macintosh; Intel Mac OS X 10_15_7) AppleWebKit/537.36 (KHTML, like Gecko) Chrome/100.0.4896.60 Safari/537.36","Macintosh","Chrome","100.0.4896.60","OS X","10_15_7","1357.2999999970198","f","","","
                      <div class=""row"">

                          <div class=""column"">
                              <div class=""orange""></div>
                              <div class=""leftChoiceText"">
                                  <p style=""font-size: 32px""><b>F</b></p>
                              </div>
                          </div>

                          <div class=""column"">
                              <div class=""pink""></div>
                              <div class=""rightChoiceText"">
                                  <p style=""font-size: 32px""><b>J</b></p>
                              </div>
                          </div>

                      </div>

                      <div class=""centeredTop"">
                          Which colour do you<br>
                          predict will win?
                      </div>","O_2_3_P",""
"","","","","","html-keyboard-response","155","190713","0.0-2.0-7.0-4.0-1.0","26","1","2022-04-03 10:10:24","c79472ad15d8b617a4d57d5bf56a810f","125.63.30.11","Mozilla/5.0 (Macintosh; Intel Mac OS X 10_15_7) AppleWebKit/537.36 (KHTML, like Gecko) Chrome/100.0.4896.60 Safari/537.36","Macintosh","Chrome","100.0.4896.60","OS X","10_15_7","null","null","","","<p style=""font-size:64px;"">+</p>","O_2_3_P",""
"","","","","","html-keyboard-response","156","209452","0.0-2.0-8.0","26","1","2022-04-03 10:10:24","c79472ad15d8b617a4d57d5bf56a810f","125.63.30.11","Mozilla/5.0 (Macintosh; Intel Mac OS X 10_15_7) AppleWebKit/537.36 (KHTML, like Gecko) Chrome/100.0.4896.60 Safari/537.36","Macintosh","Chrome","100.0.4896.60","OS X","10_15_7","18737.20000000298"," ","","","This is the end of the practice trials.<br><br>
        Press spacebar to begin the experiment.","",""
"","","","","","html-keyboard-response","157","209860","0.0-2.0-9.0-0.0-0.0","26","1","2022-04-03 10:10:24","c79472ad15d8b617a4d57d5bf56a810f","125.63.30.11","Mozilla/5.0 (Macintosh; Intel Mac OS X 10_15_7) AppleWebKit/537.36 (KHTML, like Gecko) Chrome/100.0.4896.60 Safari/537.36","Macintosh","Chrome","100.0.4896.60","OS X","10_15_7","null","null","","","<p style=""font-size:64px;"">+</p>","O_6_1_O",""
"","","","","","html-keyboard-response","158","211114","0.0-2.0-9.0-0.0-1.0","26","1","2022-04-03 10:10:24","c79472ad15d8b617a4d57d5bf56a810f","125.63.30.11","Mozilla/5.0 (Macintosh; Intel Mac OS X 10_15_7) AppleWebKit/537.36 (KHTML, like Gecko) Chrome/100.0.4896.60 Safari/537.36","Macintosh","Chrome","100.0.4896.60","OS X","10_15_7","null","null","","","
                        <div class=orange>
                        <div class=""centered"">
                            <p style=""font-size: 24px""><b>53%</b></p>
                        </div>","O_6_1_O",""
"","","","","","html-keyboard-response","159","211519","0.0-2.0-9.0-0.0-0.1","26","1","2022-04-03 10:10:24","c79472ad15d8b617a4d57d5bf56a810f","125.63.30.11","Mozilla/5.0 (Macintosh; Intel Mac OS X 10_15_7) AppleWebKit/537.36 (KHTML, like Gecko) Chrome/100.0.4896.60 Safari/537.36","Macintosh","Chrome","100.0.4896.60","OS X","10_15_7","null","null","","","<p style=""font-size:64px;"">+</p>","O_6_1_O",""
"","","","","","html-keyboard-response","160","212773","0.0-2.0-9.0-0.0-1.1","26","1","2022-04-03 10:10:24","c79472ad15d8b617a4d57d5bf56a810f","125.63.30.11","Mozilla/5.0 (Macintosh; Intel Mac OS X 10_15_7) AppleWebKit/537.36 (KHTML, like Gecko) Chrome/100.0.4896.60 Safari/537.36","Macintosh","Chrome","100.0.4896.60","OS X","10_15_7","null","null","","","
                        <div class=pink>
                        <div class=""centered"">
                            <p style=""font-size: 24px""><b>51%</b></p>
                        </div>","O_6_1_O",""
"","","","","","html-keyboard-response","161","213177","0.0-2.0-9.0-0.0-0.2","26","1","2022-04-03 10:10:24","c79472ad15d8b617a4d57d5bf56a810f","125.63.30.11","Mozilla/5.0 (Macintosh; Intel Mac OS X 10_15_7) AppleWebKit/537.36 (KHTML, like Gecko) Chrome/100.0.4896.60 Safari/537.36","Macintosh","Chrome","100.0.4896.60","OS X","10_15_7","null","null","","","<p style=""font-size:64px;"">+</p>","O_6_1_O",""
"","","","","","html-keyboard-response","162","214431","0.0-2.0-9.0-0.0-1.2","26","1","2022-04-03 10:10:24","c79472ad15d8b617a4d57d5bf56a810f","125.63.30.11","Mozilla/5.0 (Macintosh; Intel Mac OS X 10_15_7) AppleWebKit/537.36 (KHTML, like Gecko) Chrome/100.0.4896.60 Safari/537.36","Macintosh","Chrome","100.0.4896.60","OS X","10_15_7","null","null","","","
                        <div class=pink>
                        <div class=""centered"">
                            <p style=""font-size: 24px""><b>52%</b></p>
                        </div>","O_6_1_O",""
"","","","","","html-keyboard-response","163","214836","0.0-2.0-9.0-0.0-0.3","26","1","2022-04-03 10:10:24","c79472ad15d8b617a4d57d5bf56a810f","125.63.30.11","Mozilla/5.0 (Macintosh; Intel Mac OS X 10_15_7) AppleWebKit/537.36 (KHTML, like Gecko) Chrome/100.0.4896.60 Safari/537.36","Macintosh","Chrome","100.0.4896.60","OS X","10_15_7","null","null","","","<p style=""font-size:64px;"">+</p>","O_6_1_O",""
"","","","","","html-keyboard-response","164","216090","0.0-2.0-9.0-0.0-1.3","26","1","2022-04-03 10:10:24","c79472ad15d8b617a4d57d5bf56a810f","125.63.30.11","Mozilla/5.0 (Macintosh; Intel Mac OS X 10_15_7) AppleWebKit/537.36 (KHTML, like Gecko) Chrome/100.0.4896.60 Safari/537.36","Macintosh","Chrome","100.0.4896.60","OS X","10_15_7","null","null","","","
                        <div class=pink>
                        <div class=""centered"">
                            <p style=""font-size: 24px""><b>51%</b></p>
                        </div>","O_6_1_O",""
"","","","","","html-keyboard-response","165","216493","0.0-2.0-9.0-0.0-0.4","26","1","2022-04-03 10:10:24","c79472ad15d8b617a4d57d5bf56a810f","125.63.30.11","Mozilla/5.0 (Macintosh; Intel Mac OS X 10_15_7) AppleWebKit/537.36 (KHTML, like Gecko) Chrome/100.0.4896.60 Safari/537.36","Macintosh","Chrome","100.0.4896.60","OS X","10_15_7","null","null","","","<p style=""font-size:64px;"">+</p>","O_6_1_O",""
"","","","","","html-keyboard-response","166","217749","0.0-2.0-9.0-0.0-1.4","26","1","2022-04-03 10:10:24","c79472ad15d8b617a4d57d5bf56a810f","125.63.30.11","Mozilla/5.0 (Macintosh; Intel Mac OS X 10_15_7) AppleWebKit/537.36 (KHTML, like Gecko) Chrome/100.0.4896.60 Safari/537.36","Macintosh","Chrome","100.0.4896.60","OS X","10_15_7","null","null","","","
                        <div class=orange>
                        <div class=""centered"">
                            <p style=""font-size: 24px""><b>54%</b></p>
                        </div>","O_6_1_O",""
"","","","","","html-keyboard-response","167","218154","0.0-2.0-9.0-0.0-0.5","26","1","2022-04-03 10:10:24","c79472ad15d8b617a4d57d5bf56a810f","125.63.30.11","Mozilla/5.0 (Macintosh; Intel Mac OS X 10_15_7) AppleWebKit/537.36 (KHTML, like Gecko) Chrome/100.0.4896.60 Safari/537.36","Macintosh","Chrome","100.0.4896.60","OS X","10_15_7","null","null","","","<p style=""font-size:64px;"">+</p>","O_6_1_O",""
"","","","","","html-keyboard-response","168","219407","0.0-2.0-9.0-0.0-1.5","26","1","2022-04-03 10:10:24","c79472ad15d8b617a4d57d5bf56a810f","125.63.30.11","Mozilla/5.0 (Macintosh; Intel Mac OS X 10_15_7) AppleWebKit/537.36 (KHTML, like Gecko) Chrome/100.0.4896.60 Safari/537.36","Macintosh","Chrome","100.0.4896.60","OS X","10_15_7","null","null","","","
                        <div class=orange>
                        <div class=""centered"">
                            <p style=""font-size: 24px""><b>53%</b></p>
                        </div>","O_6_1_O",""
"","","","","","html-keyboard-response","169","219812","0.0-2.0-9.0-1.0-0.0","26","1","2022-04-03 10:10:24","c79472ad15d8b617a4d57d5bf56a810f","125.63.30.11","Mozilla/5.0 (Macintosh; Intel Mac OS X 10_15_7) AppleWebKit/537.36 (KHTML, like Gecko) Chrome/100.0.4896.60 Safari/537.36","Macintosh","Chrome","100.0.4896.60","OS X","10_15_7","null","null","","","<p style=""font-size:64px;"">+</p>","O_6_1_O",""
"","","","","","html-keyboard-response","170","221066","0.0-2.0-9.0-1.0-1.0","26","1","2022-04-03 10:10:24","c79472ad15d8b617a4d57d5bf56a810f","125.63.30.11","Mozilla/5.0 (Macintosh; Intel Mac OS X 10_15_7) AppleWebKit/537.36 (KHTML, like Gecko) Chrome/100.0.4896.60 Safari/537.36","Macintosh","Chrome","100.0.4896.60","OS X","10_15_7","null","null","","","
                        <div class=""orange"">
                        <div class=""centered"">
                            <p style=""font-size: 24px""><b>50%</b></p>
                        </div>","O_6_1_O",""
"","","","","","html-slider-response","171","223857","0.0-2.0-9.0-2.0","26","1","2022-04-03 10:10:24","c79472ad15d8b617a4d57d5bf56a810f","125.63.30.11","Mozilla/5.0 (Macintosh; Intel Mac OS X 10_15_7) AppleWebKit/537.36 (KHTML, like Gecko) Chrome/100.0.4896.60 Safari/537.36","Macintosh","Chrome","100.0.4896.60","OS X","10_15_7","2788.2999999970198","0","","","<div style=""width: 500px; height: 100px;""><p>Place your bid for more information.</p></div>","infoBid","11"
"","","","","","html-keyboard-response","172","224261","0.0-2.0-9.0-3.0-0.0","26","1","2022-04-03 10:10:24","c79472ad15d8b617a4d57d5bf56a810f","125.63.30.11","Mozilla/5.0 (Macintosh; Intel Mac OS X 10_15_7) AppleWebKit/537.36 (KHTML, like Gecko) Chrome/100.0.4896.60 Safari/537.36","Macintosh","Chrome","100.0.4896.60","OS X","10_15_7","null","null","","","<p style=""font-size:64px;"">+</p>","O_6_1_O",""
"","","","","","html-keyboard-response","173","225514","0.0-2.0-9.0-3.0-1.0","26","1","2022-04-03 10:10:24","c79472ad15d8b617a4d57d5bf56a810f","125.63.30.11","Mozilla/5.0 (Macintosh; Intel Mac OS X 10_15_7) AppleWebKit/537.36 (KHTML, like Gecko) Chrome/100.0.4896.60 Safari/537.36","Macintosh","Chrome","100.0.4896.60","OS X","10_15_7","null","null","","","<div class=""grey"">
                <div class=""centered"">
                    <p style=""font-size: 24px""><b>???</b></p>
                </div>","O_6_1_O",""
"","","","","","html-keyboard-response","174","226954","0.0-2.0-9.0-4.0-0.0","26","1","2022-04-03 10:10:24","c79472ad15d8b617a4d57d5bf56a810f","125.63.30.11","Mozilla/5.0 (Macintosh; Intel Mac OS X 10_15_7) AppleWebKit/537.36 (KHTML, like Gecko) Chrome/100.0.4896.60 Safari/537.36","Macintosh","Chrome","100.0.4896.60","OS X","10_15_7","1438.2000000029802","f","","","
                      <div class=""row"">

                          <div class=""column"">
                              <div class=""orange""></div>
                              <div class=""leftChoiceText"">
                                  <p style=""font-size: 32px""><b>F</b></p>
                              </div>
                          </div>

                          <div class=""column"">
                              <div class=""pink""></div>
                              <div class=""rightChoiceText"">
                                  <p style=""font-size: 32px""><b>J</b></p>
                              </div>
                          </div>

                      </div>

                      <div class=""centeredTop"">
                          Which colour do you<br>
                          predict will win?
                      </div>","O_6_1_O",""
"","","","","","html-keyboard-response","175","228464","0.0-2.0-9.0-4.0-1.0","26","1","2022-04-03 10:10:24","c79472ad15d8b617a4d57d5bf56a810f","125.63.30.11","Mozilla/5.0 (Macintosh; Intel Mac OS X 10_15_7) AppleWebKit/537.36 (KHTML, like Gecko) Chrome/100.0.4896.60 Safari/537.36","Macintosh","Chrome","100.0.4896.60","OS X","10_15_7","null","null","","","<p style=""font-size:64px;"">+</p>","O_6_1_O",""
"","","","","","html-keyboard-response","176","228869","0.0-2.0-10.0-0.0-0.0","26","1","2022-04-03 10:10:24","c79472ad15d8b617a4d57d5bf56a810f","125.63.30.11","Mozilla/5.0 (Macintosh; Intel Mac OS X 10_15_7) AppleWebKit/537.36 (KHTML, like Gecko) Chrome/100.0.4896.60 Safari/537.36","Macintosh","Chrome","100.0.4896.60","OS X","10_15_7","null","null","","","<p style=""font-size:64px;"">+</p>","P_2_3_P",""
"","","","","","html-keyboard-response","177","230122","0.0-2.0-10.0-0.0-1.0","26","1","2022-04-03 10:10:24","c79472ad15d8b617a4d57d5bf56a810f","125.63.30.11","Mozilla/5.0 (Macintosh; Intel Mac OS X 10_15_7) AppleWebKit/537.36 (KHTML, like Gecko) Chrome/100.0.4896.60 Safari/537.36","Macintosh","Chrome","100.0.4896.60","OS X","10_15_7","null","null","","","
                        <div class=pink>
                        <div class=""centered"">
                            <p style=""font-size: 24px""><b>53%</b></p>
                        </div>","P_2_3_P",""
"","","","","","html-keyboard-response","178","230528","0.0-2.0-10.0-0.0-0.1","26","1","2022-04-03 10:10:24","c79472ad15d8b617a4d57d5bf56a810f","125.63.30.11","Mozilla/5.0 (Macintosh; Intel Mac OS X 10_15_7) AppleWebKit/537.36 (KHTML, like Gecko) Chrome/100.0.4896.60 Safari/537.36","Macintosh","Chrome","100.0.4896.60","OS X","10_15_7","null","null","","","<p style=""font-size:64px;"">+</p>","P_2_3_P",""
"","","","","","html-keyboard-response","179","231782","0.0-2.0-10.0-0.0-1.1","26","1","2022-04-03 10:10:24","c79472ad15d8b617a4d57d5bf56a810f","125.63.30.11","Mozilla/5.0 (Macintosh; Intel Mac OS X 10_15_7) AppleWebKit/537.36 (KHTML, like Gecko) Chrome/100.0.4896.60 Safari/537.36","Macintosh","Chrome","100.0.4896.60","OS X","10_15_7","null","null","","","
                        <div class=pink>
                        <div class=""centered"">
                            <p style=""font-size: 24px""><b>53%</b></p>
                        </div>","P_2_3_P",""
"","","","","","html-keyboard-response","180","232187","0.0-2.0-10.0-0.0-0.2","26","1","2022-04-03 10:10:24","c79472ad15d8b617a4d57d5bf56a810f","125.63.30.11","Mozilla/5.0 (Macintosh; Intel Mac OS X 10_15_7) AppleWebKit/537.36 (KHTML, like Gecko) Chrome/100.0.4896.60 Safari/537.36","Macintosh","Chrome","100.0.4896.60","OS X","10_15_7","null","null","","","<p style=""font-size:64px;"">+</p>","P_2_3_P",""
"","","","","","html-keyboard-response","181","233440","0.0-2.0-10.0-0.0-1.2","26","1","2022-04-03 10:10:24","c79472ad15d8b617a4d57d5bf56a810f","125.63.30.11","Mozilla/5.0 (Macintosh; Intel Mac OS X 10_15_7) AppleWebKit/537.36 (KHTML, like Gecko) Chrome/100.0.4896.60 Safari/537.36","Macintosh","Chrome","100.0.4896.60","OS X","10_15_7","null","null","","","
                        <div class=orange>
                        <div class=""centered"">
                            <p style=""font-size: 24px""><b>52%</b></p>
                        </div>","P_2_3_P",""
"","","","","","html-keyboard-response","182","233845","0.0-2.0-10.0-0.0-0.3","26","1","2022-04-03 10:10:24","c79472ad15d8b617a4d57d5bf56a810f","125.63.30.11","Mozilla/5.0 (Macintosh; Intel Mac OS X 10_15_7) AppleWebKit/537.36 (KHTML, like Gecko) Chrome/100.0.4896.60 Safari/537.36","Macintosh","Chrome","100.0.4896.60","OS X","10_15_7","null","null","","","<p style=""font-size:64px;"">+</p>","P_2_3_P",""
"","","","","","html-keyboard-response","183","235098","0.0-2.0-10.0-0.0-1.3","26","1","2022-04-03 10:10:24","c79472ad15d8b617a4d57d5bf56a810f","125.63.30.11","Mozilla/5.0 (Macintosh; Intel Mac OS X 10_15_7) AppleWebKit/537.36 (KHTML, like Gecko) Chrome/100.0.4896.60 Safari/537.36","Macintosh","Chrome","100.0.4896.60","OS X","10_15_7","null","null","","","
                        <div class=pink>
                        <div class=""centered"">
                            <p style=""font-size: 24px""><b>54%</b></p>
                        </div>","P_2_3_P",""
"","","","","","html-keyboard-response","184","235499","0.0-2.0-10.0-0.0-0.4","26","1","2022-04-03 10:10:24","c79472ad15d8b617a4d57d5bf56a810f","125.63.30.11","Mozilla/5.0 (Macintosh; Intel Mac OS X 10_15_7) AppleWebKit/537.36 (KHTML, like Gecko) Chrome/100.0.4896.60 Safari/537.36","Macintosh","Chrome","100.0.4896.60","OS X","10_15_7","null","null","","","<p style=""font-size:64px;"">+</p>","P_2_3_P",""
"","","","","","html-keyboard-response","185","236757","0.0-2.0-10.0-0.0-1.4","26","1","2022-04-03 10:10:24","c79472ad15d8b617a4d57d5bf56a810f","125.63.30.11","Mozilla/5.0 (Macintosh; Intel Mac OS X 10_15_7) AppleWebKit/537.36 (KHTML, like Gecko) Chrome/100.0.4896.60 Safari/537.36","Macintosh","Chrome","100.0.4896.60","OS X","10_15_7","null","null","","","
                        <div class=orange>
                        <div class=""centered"">
                            <p style=""font-size: 24px""><b>52%</b></p>
                        </div>","P_2_3_P",""
"","","","","","html-keyboard-response","186","237162","0.0-2.0-10.0-0.0-0.5","26","1","2022-04-03 10:10:24","c79472ad15d8b617a4d57d5bf56a810f","125.63.30.11","Mozilla/5.0 (Macintosh; Intel Mac OS X 10_15_7) AppleWebKit/537.36 (KHTML, like Gecko) Chrome/100.0.4896.60 Safari/537.36","Macintosh","Chrome","100.0.4896.60","OS X","10_15_7","null","null","","","<p style=""font-size:64px;"">+</p>","P_2_3_P",""
"","","","","","html-keyboard-response","187","238416","0.0-2.0-10.0-0.0-1.5","26","1","2022-04-03 10:10:24","c79472ad15d8b617a4d57d5bf56a810f","125.63.30.11","Mozilla/5.0 (Macintosh; Intel Mac OS X 10_15_7) AppleWebKit/537.36 (KHTML, like Gecko) Chrome/100.0.4896.60 Safari/537.36","Macintosh","Chrome","100.0.4896.60","OS X","10_15_7","null","null","","","
                        <div class=orange>
                        <div class=""centered"">
                            <p style=""font-size: 24px""><b>54%</b></p>
                        </div>","P_2_3_P",""
"","","","","","html-keyboard-response","188","238821","0.0-2.0-10.0-1.0-0.0","26","1","2022-04-03 10:10:24","c79472ad15d8b617a4d57d5bf56a810f","125.63.30.11","Mozilla/5.0 (Macintosh; Intel Mac OS X 10_15_7) AppleWebKit/537.36 (KHTML, like Gecko) Chrome/100.0.4896.60 Safari/537.36","Macintosh","Chrome","100.0.4896.60","OS X","10_15_7","null","null","","","<p style=""font-size:64px;"">+</p>","P_2_3_P",""
"","","","","","html-keyboard-response","189","240075","0.0-2.0-10.0-1.0-1.0","26","1","2022-04-03 10:10:24","c79472ad15d8b617a4d57d5bf56a810f","125.63.30.11","Mozilla/5.0 (Macintosh; Intel Mac OS X 10_15_7) AppleWebKit/537.36 (KHTML, like Gecko) Chrome/100.0.4896.60 Safari/537.36","Macintosh","Chrome","100.0.4896.60","OS X","10_15_7","null","null","","","
                        <div class=""pink"">
                        <div class=""centered"">
                            <p style=""font-size: 24px""><b>50%</b></p>
                        </div>","P_2_3_P",""
"","","","","","html-slider-response","190","242468","0.0-2.0-10.0-2.0","26","1","2022-04-03 10:10:24","c79472ad15d8b617a4d57d5bf56a810f","125.63.30.11","Mozilla/5.0 (Macintosh; Intel Mac OS X 10_15_7) AppleWebKit/537.36 (KHTML, like Gecko) Chrome/100.0.4896.60 Safari/537.36","Macintosh","Chrome","100.0.4896.60","OS X","10_15_7","2391.0999999940395","0","","","<div style=""width: 500px; height: 100px;""><p>Place your bid for more information.</p></div>","infoBid","36"
"","","","","","html-keyboard-response","191","242870","0.0-2.0-10.0-3.0-0.0","26","1","2022-04-03 10:10:24","c79472ad15d8b617a4d57d5bf56a810f","125.63.30.11","Mozilla/5.0 (Macintosh; Intel Mac OS X 10_15_7) AppleWebKit/537.36 (KHTML, like Gecko) Chrome/100.0.4896.60 Safari/537.36","Macintosh","Chrome","100.0.4896.60","OS X","10_15_7","null","null","","","<p style=""font-size:64px;"">+</p>","P_2_3_P",""
"","","","","","html-keyboard-response","192","244122","0.0-2.0-10.0-3.0-1.0","26","1","2022-04-03 10:10:24","c79472ad15d8b617a4d57d5bf56a810f","125.63.30.11","Mozilla/5.0 (Macintosh; Intel Mac OS X 10_15_7) AppleWebKit/537.36 (KHTML, like Gecko) Chrome/100.0.4896.60 Safari/537.36","Macintosh","Chrome","100.0.4896.60","OS X","10_15_7","null","null","","","<div class=""grey"">
                <div class=""centered"">
