"success","timeout","failed_images","failed_audio","failed_video","trial_type","trial_index","time_elapsed","internal_node_id","run_id","condition","recorded_at","source_code_version","ip","user_agent","device","browser","browser_version","platform","platform_version","rt","response","question_order","view_history","stimulus","trial_name","slider_start"
"true","false","[]","[]","[]","preload","0","83","0.0-0.0","29","1","2022-04-03 23:26:19","c79472ad15d8b617a4d57d5bf56a810f","128.250.0.197","Mozilla/5.0 (Windows NT 10.0; Win64; x64) AppleWebKit/537.36 (KHTML, like Gecko) Chrome/100.0.4896.60 Safari/537.36","WebKit","Chrome","100.0.4896.60","Windows","10.0","","","","","","",""
"","","","","","survey-multi-choice","1","16785","0.0-1.0-0.0","29","1","2022-04-03 23:26:19","c79472ad15d8b617a4d57d5bf56a810f","128.250.0.197","Mozilla/5.0 (Windows NT 10.0; Win64; x64) AppleWebKit/537.36 (KHTML, like Gecko) Chrome/100.0.4896.60 Safari/537.36","WebKit","Chrome","100.0.4896.60","Windows","10.0","16699.700000047684","{""Gender"":""Male""}","[0]","","","",""
"","","","","","survey-text","2","22573","0.0-1.0-1.0","29","1","2022-04-03 23:26:19","c79472ad15d8b617a4d57d5bf56a810f","128.250.0.197","Mozilla/5.0 (Windows NT 10.0; Win64; x64) AppleWebKit/537.36 (KHTML, like Gecko) Chrome/100.0.4896.60 Safari/537.36","WebKit","Chrome","100.0.4896.60","Windows","10.0","5786.299999952316","{""Age"":""26""}","","","","",""
"","","","","","instructions","3","236801","0.0-1.0-2.0","29","1","2022-04-03 23:26:19","c79472ad15d8b617a4d57d5bf56a810f","128.250.0.197","Mozilla/5.0 (Windows NT 10.0; Win64; x64) AppleWebKit/537.36 (KHTML, like Gecko) Chrome/100.0.4896.60 Safari/537.36","WebKit","Chrome","100.0.4896.60","Windows","10.0","214225.89999985695","","","[{""page_index"":0,""viewing_time"":8280.099999904633},{""page_index"":1,""viewing_time"":24551},{""page_index"":2,""viewing_time"":25847.200000047684},{""page_index"":3,""viewing_time"":23408.599999904633},{""page_index"":4,""viewing_time"":19490.200000047684},{""page_index"":5,""viewing_time"":12911.100000143051},{""page_index"":6,""viewing_time"":19949.5},{""page_index"":7,""viewing_time"":32106},{""page_index"":8,""viewing_time"":3641.5},{""page_index"":9,""viewing_time"":6698.799999952316},{""page_index"":10,""viewing_time"":7169},{""page_index"":11,""viewing_time"":15966},{""page_index"":12,""viewing_time"":11294.700000047684},{""page_index"":13,""viewing_time"":2911.2999999523163}]","","",""
"","","","","","html-keyboard-response","4","237203","0.0-2.0-0.0-0.0-0.0","29","1","2022-04-03 23:26:19","c79472ad15d8b617a4d57d5bf56a810f","128.250.0.197","Mozilla/5.0 (Windows NT 10.0; Win64; x64) AppleWebKit/537.36 (KHTML, like Gecko) Chrome/100.0.4896.60 Safari/537.36","WebKit","Chrome","100.0.4896.60","Windows","10.0","null","null","","","<p style=""font-size:64px;"">+</p>","Z_3_O",""
"","","","","","html-keyboard-response","5","238456","0.0-2.0-0.0-0.0-1.0","29","1","2022-04-03 23:26:19","c79472ad15d8b617a4d57d5bf56a810f","128.250.0.197","Mozilla/5.0 (Windows NT 10.0; Win64; x64) AppleWebKit/537.36 (KHTML, like Gecko) Chrome/100.0.4896.60 Safari/537.36","WebKit","Chrome","100.0.4896.60","Windows","10.0","null","null","","","
                        <div class=orange>
                        <div class=""centered"">
                            <p style=""font-size: 24px""><b>52%</b></p>
                        </div>","Z_3_O",""
"","","","","","html-keyboard-response","6","238857","0.0-2.0-0.0-0.0-0.1","29","1","2022-04-03 23:26:19","c79472ad15d8b617a4d57d5bf56a810f","128.250.0.197","Mozilla/5.0 (Windows NT 10.0; Win64; x64) AppleWebKit/537.36 (KHTML, like Gecko) Chrome/100.0.4896.60 Safari/537.36","WebKit","Chrome","100.0.4896.60","Windows","10.0","null","null","","","<p style=""font-size:64px;"">+</p>","Z_3_O",""
"","","","","","html-keyboard-response","7","240110","0.0-2.0-0.0-0.0-1.1","29","1","2022-04-03 23:26:19","c79472ad15d8b617a4d57d5bf56a810f","128.250.0.197","Mozilla/5.0 (Windows NT 10.0; Win64; x64) AppleWebKit/537.36 (KHTML, like Gecko) Chrome/100.0.4896.60 Safari/537.36","WebKit","Chrome","100.0.4896.60","Windows","10.0","null","null","","","
                        <div class=orange>
                        <div class=""centered"">
                            <p style=""font-size: 24px""><b>53%</b></p>
                        </div>","Z_3_O",""
"","","","","","html-keyboard-response","8","240513","0.0-2.0-0.0-0.0-0.2","29","1","2022-04-03 23:26:19","c79472ad15d8b617a4d57d5bf56a810f","128.250.0.197","Mozilla/5.0 (Windows NT 10.0; Win64; x64) AppleWebKit/537.36 (KHTML, like Gecko) Chrome/100.0.4896.60 Safari/537.36","WebKit","Chrome","100.0.4896.60","Windows","10.0","null","null","","","<p style=""font-size:64px;"">+</p>","Z_3_O",""
"","","","","","html-keyboard-response","9","241765","0.0-2.0-0.0-0.0-1.2","29","1","2022-04-03 23:26:19","c79472ad15d8b617a4d57d5bf56a810f","128.250.0.197","Mozilla/5.0 (Windows NT 10.0; Win64; x64) AppleWebKit/537.36 (KHTML, like Gecko) Chrome/100.0.4896.60 Safari/537.36","WebKit","Chrome","100.0.4896.60","Windows","10.0","null","null","","","
                        <div class=pink>
                        <div class=""centered"">
                            <p style=""font-size: 24px""><b>53%</b></p>
                        </div>","Z_3_O",""
"","","","","","html-keyboard-response","10","242167","0.0-2.0-0.0-0.0-0.3","29","1","2022-04-03 23:26:19","c79472ad15d8b617a4d57d5bf56a810f","128.250.0.197","Mozilla/5.0 (Windows NT 10.0; Win64; x64) AppleWebKit/537.36 (KHTML, like Gecko) Chrome/100.0.4896.60 Safari/537.36","WebKit","Chrome","100.0.4896.60","Windows","10.0","null","null","","","<p style=""font-size:64px;"">+</p>","Z_3_O",""
"","","","","","html-keyboard-response","11","243420","0.0-2.0-0.0-0.0-1.3","29","1","2022-04-03 23:26:19","c79472ad15d8b617a4d57d5bf56a810f","128.250.0.197","Mozilla/5.0 (Windows NT 10.0; Win64; x64) AppleWebKit/537.36 (KHTML, like Gecko) Chrome/100.0.4896.60 Safari/537.36","WebKit","Chrome","100.0.4896.60","Windows","10.0","null","null","","","
                        <div class=pink>
                        <div class=""centered"">
                            <p style=""font-size: 24px""><b>53%</b></p>
                        </div>","Z_3_O",""
"","","","","","html-keyboard-response","12","243822","0.0-2.0-0.0-0.0-0.4","29","1","2022-04-03 23:26:19","c79472ad15d8b617a4d57d5bf56a810f","128.250.0.197","Mozilla/5.0 (Windows NT 10.0; Win64; x64) AppleWebKit/537.36 (KHTML, like Gecko) Chrome/100.0.4896.60 Safari/537.36","WebKit","Chrome","100.0.4896.60","Windows","10.0","null","null","","","<p style=""font-size:64px;"">+</p>","Z_3_O",""
"","","","","","html-keyboard-response","13","245074","0.0-2.0-0.0-0.0-1.4","29","1","2022-04-03 23:26:19","c79472ad15d8b617a4d57d5bf56a810f","128.250.0.197","Mozilla/5.0 (Windows NT 10.0; Win64; x64) AppleWebKit/537.36 (KHTML, like Gecko) Chrome/100.0.4896.60 Safari/537.36","WebKit","Chrome","100.0.4896.60","Windows","10.0","null","null","","","
                        <div class=orange>
                        <div class=""centered"">
                            <p style=""font-size: 24px""><b>52%</b></p>
                        </div>","Z_3_O",""
"","","","","","html-keyboard-response","14","245476","0.0-2.0-0.0-0.0-0.5","29","1","2022-04-03 23:26:19","c79472ad15d8b617a4d57d5bf56a810f","128.250.0.197","Mozilla/5.0 (Windows NT 10.0; Win64; x64) AppleWebKit/537.36 (KHTML, like Gecko) Chrome/100.0.4896.60 Safari/537.36","WebKit","Chrome","100.0.4896.60","Windows","10.0","null","null","","","<p style=""font-size:64px;"">+</p>","Z_3_O",""
"","","","","","html-keyboard-response","15","246728","0.0-2.0-0.0-0.0-1.5","29","1","2022-04-03 23:26:19","c79472ad15d8b617a4d57d5bf56a810f","128.250.0.197","Mozilla/5.0 (Windows NT 10.0; Win64; x64) AppleWebKit/537.36 (KHTML, like Gecko) Chrome/100.0.4896.60 Safari/537.36","WebKit","Chrome","100.0.4896.60","Windows","10.0","null","null","","","
                        <div class=pink>
                        <div class=""centered"">
                            <p style=""font-size: 24px""><b>51%</b></p>
                        </div>","Z_3_O",""
"","","","","","html-keyboard-response","16","247130","0.0-2.0-0.0-1.0-0.0","29","1","2022-04-03 23:26:19","c79472ad15d8b617a4d57d5bf56a810f","128.250.0.197","Mozilla/5.0 (Windows NT 10.0; Win64; x64) AppleWebKit/537.36 (KHTML, like Gecko) Chrome/100.0.4896.60 Safari/537.36","WebKit","Chrome","100.0.4896.60","Windows","10.0","null","null","","","<p style=""font-size:64px;"">+</p>","Z_3_O",""
"","","","","","html-keyboard-response","17","248382","0.0-2.0-0.0-1.0-1.0","29","1","2022-04-03 23:26:19","c79472ad15d8b617a4d57d5bf56a810f","128.250.0.197","Mozilla/5.0 (Windows NT 10.0; Win64; x64) AppleWebKit/537.36 (KHTML, like Gecko) Chrome/100.0.4896.60 Safari/537.36","WebKit","Chrome","100.0.4896.60","Windows","10.0","null","null","","","
                        <div class=""orange"">
                        <div class=""centered"">
                            <p style=""font-size: 24px""><b>50%</b></p>
                        </div>","Z_3_O",""
"","","","","","html-slider-response","18","251933","0.0-2.0-0.0-2.0","29","1","2022-04-03 23:26:19","c79472ad15d8b617a4d57d5bf56a810f","128.250.0.197","Mozilla/5.0 (Windows NT 10.0; Win64; x64) AppleWebKit/537.36 (KHTML, like Gecko) Chrome/100.0.4896.60 Safari/537.36","WebKit","Chrome","100.0.4896.60","Windows","10.0","3550.2999999523163","32","","","<div style=""width: 500px; height: 100px;""><p>Place your bid for more information.</p></div>","infoBid","21"
"","","","","","html-keyboard-response","19","252335","0.0-2.0-0.0-3.0-0.0","29","1","2022-04-03 23:26:19","c79472ad15d8b617a4d57d5bf56a810f","128.250.0.197","Mozilla/5.0 (Windows NT 10.0; Win64; x64) AppleWebKit/537.36 (KHTML, like Gecko) Chrome/100.0.4896.60 Safari/537.36","WebKit","Chrome","100.0.4896.60","Windows","10.0","null","null","","","<p style=""font-size:64px;"">+</p>","Z_3_O",""
"","","","","","html-keyboard-response","20","253587","0.0-2.0-0.0-3.0-1.0","29","1","2022-04-03 23:26:19","c79472ad15d8b617a4d57d5bf56a810f","128.250.0.197","Mozilla/5.0 (Windows NT 10.0; Win64; x64) AppleWebKit/537.36 (KHTML, like Gecko) Chrome/100.0.4896.60 Safari/537.36","WebKit","Chrome","100.0.4896.60","Windows","10.0","null","null","","","<div class=""grey"">
                <div class=""centered"">
                    <p style=""font-size: 24px""><b>???</b></p>
                </div>","Z_3_O",""
"","","","","","html-keyboard-response","21","254959","0.0-2.0-0.0-4.0-0.0","29","1","2022-04-03 23:26:19","c79472ad15d8b617a4d57d5bf56a810f","128.250.0.197","Mozilla/5.0 (Windows NT 10.0; Win64; x64) AppleWebKit/537.36 (KHTML, like Gecko) Chrome/100.0.4896.60 Safari/537.36","WebKit","Chrome","100.0.4896.60","Windows","10.0","1370.1999998092651","j","","","
                      <div class=""row"">

                          <div class=""column"">
                              <div class=""orange""></div>
                              <div class=""leftChoiceText"">
                                  <p style=""font-size: 32px""><b>F</b></p>
                              </div>
                          </div>

                          <div class=""column"">
                              <div class=""pink""></div>
                              <div class=""rightChoiceText"">
                                  <p style=""font-size: 32px""><b>J</b></p>
                              </div>
                          </div>

                      </div>

                      <div class=""centeredTop"">
                          Which colour do you<br>
                          predict will win?
                      </div>","Z_3_O",""
"","","","","","html-keyboard-response","22","256462","0.0-2.0-0.0-4.0-1.0","29","1","2022-04-03 23:26:19","c79472ad15d8b617a4d57d5bf56a810f","128.250.0.197","Mozilla/5.0 (Windows NT 10.0; Win64; x64) AppleWebKit/537.36 (KHTML, like Gecko) Chrome/100.0.4896.60 Safari/537.36","WebKit","Chrome","100.0.4896.60","Windows","10.0","null","null","","","<p style=""font-size:64px;"">+</p>","Z_3_O",""
"","","","","","html-keyboard-response","23","256865","0.0-2.0-1.0-0.0-0.0","29","1","2022-04-03 23:26:19","c79472ad15d8b617a4d57d5bf56a810f","128.250.0.197","Mozilla/5.0 (Windows NT 10.0; Win64; x64) AppleWebKit/537.36 (KHTML, like Gecko) Chrome/100.0.4896.60 Safari/537.36","WebKit","Chrome","100.0.4896.60","Windows","10.0","null","null","","","<p style=""font-size:64px;"">+</p>","Z_1_O",""
"","","","","","html-keyboard-response","24","258117","0.0-2.0-1.0-0.0-1.0","29","1","2022-04-03 23:26:19","c79472ad15d8b617a4d57d5bf56a810f","128.250.0.197","Mozilla/5.0 (Windows NT 10.0; Win64; x64) AppleWebKit/537.36 (KHTML, like Gecko) Chrome/100.0.4896.60 Safari/537.36","WebKit","Chrome","100.0.4896.60","Windows","10.0","null","null","","","
                        <div class=orange>
                        <div class=""centered"">
                            <p style=""font-size: 24px""><b>51%</b></p>
                        </div>","Z_1_O",""
"","","","","","html-keyboard-response","25","258518","0.0-2.0-1.0-0.0-0.1","29","1","2022-04-03 23:26:19","c79472ad15d8b617a4d57d5bf56a810f","128.250.0.197","Mozilla/5.0 (Windows NT 10.0; Win64; x64) AppleWebKit/537.36 (KHTML, like Gecko) Chrome/100.0.4896.60 Safari/537.36","WebKit","Chrome","100.0.4896.60","Windows","10.0","null","null","","","<p style=""font-size:64px;"">+</p>","Z_1_O",""
"","","","","","html-keyboard-response","26","259770","0.0-2.0-1.0-0.0-1.1","29","1","2022-04-03 23:26:19","c79472ad15d8b617a4d57d5bf56a810f","128.250.0.197","Mozilla/5.0 (Windows NT 10.0; Win64; x64) AppleWebKit/537.36 (KHTML, like Gecko) Chrome/100.0.4896.60 Safari/537.36","WebKit","Chrome","100.0.4896.60","Windows","10.0","null","null","","","
                        <div class=pink>
                        <div class=""centered"">
                            <p style=""font-size: 24px""><b>51%</b></p>
                        </div>","Z_1_O",""
"","","","","","html-keyboard-response","27","260195","0.0-2.0-1.0-0.0-0.2","29","1","2022-04-03 23:26:19","c79472ad15d8b617a4d57d5bf56a810f","128.250.0.197","Mozilla/5.0 (Windows NT 10.0; Win64; x64) AppleWebKit/537.36 (KHTML, like Gecko) Chrome/100.0.4896.60 Safari/537.36","WebKit","Chrome","100.0.4896.60","Windows","10.0","null","null","","","<p style=""font-size:64px;"">+</p>","Z_1_O",""
"","","","","","html-keyboard-response","28","261447","0.0-2.0-1.0-0.0-1.2","29","1","2022-04-03 23:26:19","c79472ad15d8b617a4d57d5bf56a810f","128.250.0.197","Mozilla/5.0 (Windows NT 10.0; Win64; x64) AppleWebKit/537.36 (KHTML, like Gecko) Chrome/100.0.4896.60 Safari/537.36","WebKit","Chrome","100.0.4896.60","Windows","10.0","null","null","","","
                        <div class=orange>
                        <div class=""centered"">
                            <p style=""font-size: 24px""><b>52%</b></p>
                        </div>","Z_1_O",""
"","","","","","html-keyboard-response","29","261860","0.0-2.0-1.0-0.0-0.3","29","1","2022-04-03 23:26:19","c79472ad15d8b617a4d57d5bf56a810f","128.250.0.197","Mozilla/5.0 (Windows NT 10.0; Win64; x64) AppleWebKit/537.36 (KHTML, like Gecko) Chrome/100.0.4896.60 Safari/537.36","WebKit","Chrome","100.0.4896.60","Windows","10.0","null","null","","","<p style=""font-size:64px;"">+</p>","Z_1_O",""
"","","","","","html-keyboard-response","30","263113","0.0-2.0-1.0-0.0-1.3","29","1","2022-04-03 23:26:19","c79472ad15d8b617a4d57d5bf56a810f","128.250.0.197","Mozilla/5.0 (Windows NT 10.0; Win64; x64) AppleWebKit/537.36 (KHTML, like Gecko) Chrome/100.0.4896.60 Safari/537.36","WebKit","Chrome","100.0.4896.60","Windows","10.0","null","null","","","
                        <div class=orange>
                        <div class=""centered"">
                            <p style=""font-size: 24px""><b>51%</b></p>
                        </div>","Z_1_O",""
"","","","","","html-keyboard-response","31","263515","0.0-2.0-1.0-0.0-0.4","29","1","2022-04-03 23:26:19","c79472ad15d8b617a4d57d5bf56a810f","128.250.0.197","Mozilla/5.0 (Windows NT 10.0; Win64; x64) AppleWebKit/537.36 (KHTML, like Gecko) Chrome/100.0.4896.60 Safari/537.36","WebKit","Chrome","100.0.4896.60","Windows","10.0","null","null","","","<p style=""font-size:64px;"">+</p>","Z_1_O",""
"","","","","","html-keyboard-response","32","264768","0.0-2.0-1.0-0.0-1.4","29","1","2022-04-03 23:26:19","c79472ad15d8b617a4d57d5bf56a810f","128.250.0.197","Mozilla/5.0 (Windows NT 10.0; Win64; x64) AppleWebKit/537.36 (KHTML, like Gecko) Chrome/100.0.4896.60 Safari/537.36","WebKit","Chrome","100.0.4896.60","Windows","10.0","null","null","","","
                        <div class=pink>
                        <div class=""centered"">
                            <p style=""font-size: 24px""><b>51%</b></p>
                        </div>","Z_1_O",""
"","","","","","html-keyboard-response","33","265169","0.0-2.0-1.0-0.0-0.5","29","1","2022-04-03 23:26:19","c79472ad15d8b617a4d57d5bf56a810f","128.250.0.197","Mozilla/5.0 (Windows NT 10.0; Win64; x64) AppleWebKit/537.36 (KHTML, like Gecko) Chrome/100.0.4896.60 Safari/537.36","WebKit","Chrome","100.0.4896.60","Windows","10.0","null","null","","","<p style=""font-size:64px;"">+</p>","Z_1_O",""
"","","","","","html-keyboard-response","34","266421","0.0-2.0-1.0-0.0-1.5","29","1","2022-04-03 23:26:19","c79472ad15d8b617a4d57d5bf56a810f","128.250.0.197","Mozilla/5.0 (Windows NT 10.0; Win64; x64) AppleWebKit/537.36 (KHTML, like Gecko) Chrome/100.0.4896.60 Safari/537.36","WebKit","Chrome","100.0.4896.60","Windows","10.0","null","null","","","
                        <div class=pink>
                        <div class=""centered"">
                            <p style=""font-size: 24px""><b>52%</b></p>
                        </div>","Z_1_O",""
"","","","","","html-keyboard-response","35","266833","0.0-2.0-1.0-1.0-0.0","29","1","2022-04-03 23:26:19","c79472ad15d8b617a4d57d5bf56a810f","128.250.0.197","Mozilla/5.0 (Windows NT 10.0; Win64; x64) AppleWebKit/537.36 (KHTML, like Gecko) Chrome/100.0.4896.60 Safari/537.36","WebKit","Chrome","100.0.4896.60","Windows","10.0","null","null","","","<p style=""font-size:64px;"">+</p>","Z_1_O",""
"","","","","","html-keyboard-response","36","268084","0.0-2.0-1.0-1.0-1.0","29","1","2022-04-03 23:26:19","c79472ad15d8b617a4d57d5bf56a810f","128.250.0.197","Mozilla/5.0 (Windows NT 10.0; Win64; x64) AppleWebKit/537.36 (KHTML, like Gecko) Chrome/100.0.4896.60 Safari/537.36","WebKit","Chrome","100.0.4896.60","Windows","10.0","null","null","","","
                        <div class=""orange"">
                        <div class=""centered"">
                            <p style=""font-size: 24px""><b>50%</b></p>
                        </div>","Z_1_O",""
"","","","","","html-slider-response","37","273398","0.0-2.0-1.0-2.0","29","1","2022-04-03 23:26:19","c79472ad15d8b617a4d57d5bf56a810f","128.250.0.197","Mozilla/5.0 (Windows NT 10.0; Win64; x64) AppleWebKit/537.36 (KHTML, like Gecko) Chrome/100.0.4896.60 Safari/537.36","WebKit","Chrome","100.0.4896.60","Windows","10.0","5312.400000095367","44","","","<div style=""width: 500px; height: 100px;""><p>Place your bid for more information.</p></div>","infoBid","4"
"","","","","","html-keyboard-response","38","273800","0.0-2.0-1.0-3.0-0.0","29","1","2022-04-03 23:26:19","c79472ad15d8b617a4d57d5bf56a810f","128.250.0.197","Mozilla/5.0 (Windows NT 10.0; Win64; x64) AppleWebKit/537.36 (KHTML, like Gecko) Chrome/100.0.4896.60 Safari/537.36","WebKit","Chrome","100.0.4896.60","Windows","10.0","null","null","","","<p style=""font-size:64px;"">+</p>","Z_1_O",""
"","","","","","html-keyboard-response","39","275052","0.0-2.0-1.0-3.0-1.0","29","1","2022-04-03 23:26:19","c79472ad15d8b617a4d57d5bf56a810f","128.250.0.197","Mozilla/5.0 (Windows NT 10.0; Win64; x64) AppleWebKit/537.36 (KHTML, like Gecko) Chrome/100.0.4896.60 Safari/537.36","WebKit","Chrome","100.0.4896.60","Windows","10.0","null","null","","","<div class=orange>
                <div class=""centered"">
                    <p style=""font-size: 24px""><b>53%</b></p>
                </div>","Z_1_O",""
"","","","","","html-keyboard-response","40","276935","0.0-2.0-1.0-4.0-0.0","29","1","2022-04-03 23:26:19","c79472ad15d8b617a4d57d5bf56a810f","128.250.0.197","Mozilla/5.0 (Windows NT 10.0; Win64; x64) AppleWebKit/537.36 (KHTML, like Gecko) Chrome/100.0.4896.60 Safari/537.36","WebKit","Chrome","100.0.4896.60","Windows","10.0","1882.8999998569489","f","","","
                      <div class=""row"">

                          <div class=""column"">
                              <div class=""orange""></div>
                              <div class=""leftChoiceText"">
                                  <p style=""font-size: 32px""><b>F</b></p>
                              </div>
                          </div>

                          <div class=""column"">
                              <div class=""pink""></div>
                              <div class=""rightChoiceText"">
                                  <p style=""font-size: 32px""><b>J</b></p>
                              </div>
                          </div>

                      </div>

                      <div class=""centeredTop"">
                          Which colour do you<br>
                          predict will win?
                      </div>","Z_1_O",""
"","","","","","html-keyboard-response","41","278438","0.0-2.0-1.0-4.0-1.0","29","1","2022-04-03 23:26:19","c79472ad15d8b617a4d57d5bf56a810f","128.250.0.197","Mozilla/5.0 (Windows NT 10.0; Win64; x64) AppleWebKit/537.36 (KHTML, like Gecko) Chrome/100.0.4896.60 Safari/537.36","WebKit","Chrome","100.0.4896.60","Windows","10.0","null","null","","","<p style=""font-size:64px;"">+</p>","Z_1_O",""
"","","","","","html-keyboard-response","42","278839","0.0-2.0-2.0-0.0-0.0","29","1","2022-04-03 23:26:19","c79472ad15d8b617a4d57d5bf56a810f","128.250.0.197","Mozilla/5.0 (Windows NT 10.0; Win64; x64) AppleWebKit/537.36 (KHTML, like Gecko) Chrome/100.0.4896.60 Safari/537.36","WebKit","Chrome","100.0.4896.60","Windows","10.0","null","null","","","<p style=""font-size:64px;"">+</p>","O_4_2_P",""
"","","","","","html-keyboard-response","43","280092","0.0-2.0-2.0-0.0-1.0","29","1","2022-04-03 23:26:19","c79472ad15d8b617a4d57d5bf56a810f","128.250.0.197","Mozilla/5.0 (Windows NT 10.0; Win64; x64) AppleWebKit/537.36 (KHTML, like Gecko) Chrome/100.0.4896.60 Safari/537.36","WebKit","Chrome","100.0.4896.60","Windows","10.0","null","null","","","
                        <div class=pink>
                        <div class=""centered"">
                            <p style=""font-size: 24px""><b>52%</b></p>
                        </div>","O_4_2_P",""
"","","","","","html-keyboard-response","44","280494","0.0-2.0-2.0-0.0-0.1","29","1","2022-04-03 23:26:19","c79472ad15d8b617a4d57d5bf56a810f","128.250.0.197","Mozilla/5.0 (Windows NT 10.0; Win64; x64) AppleWebKit/537.36 (KHTML, like Gecko) Chrome/100.0.4896.60 Safari/537.36","WebKit","Chrome","100.0.4896.60","Windows","10.0","null","null","","","<p style=""font-size:64px;"">+</p>","O_4_2_P",""
"","","","","","html-keyboard-response","45","281746","0.0-2.0-2.0-0.0-1.1","29","1","2022-04-03 23:26:19","c79472ad15d8b617a4d57d5bf56a810f","128.250.0.197","Mozilla/5.0 (Windows NT 10.0; Win64; x64) AppleWebKit/537.36 (KHTML, like Gecko) Chrome/100.0.4896.60 Safari/537.36","WebKit","Chrome","100.0.4896.60","Windows","10.0","null","null","","","
                        <div class=pink>
                        <div class=""centered"">
                            <p style=""font-size: 24px""><b>51%</b></p>
                        </div>","O_4_2_P",""
"","","","","","html-keyboard-response","46","282149","0.0-2.0-2.0-0.0-0.2","29","1","2022-04-03 23:26:19","c79472ad15d8b617a4d57d5bf56a810f","128.250.0.197","Mozilla/5.0 (Windows NT 10.0; Win64; x64) AppleWebKit/537.36 (KHTML, like Gecko) Chrome/100.0.4896.60 Safari/537.36","WebKit","Chrome","100.0.4896.60","Windows","10.0","null","null","","","<p style=""font-size:64px;"">+</p>","O_4_2_P",""
"","","","","","html-keyboard-response","47","283401","0.0-2.0-2.0-0.0-1.2","29","1","2022-04-03 23:26:19","c79472ad15d8b617a4d57d5bf56a810f","128.250.0.197","Mozilla/5.0 (Windows NT 10.0; Win64; x64) AppleWebKit/537.36 (KHTML, like Gecko) Chrome/100.0.4896.60 Safari/537.36","WebKit","Chrome","100.0.4896.60","Windows","10.0","null","null","","","
                        <div class=orange>
                        <div class=""centered"">
                            <p style=""font-size: 24px""><b>54%</b></p>
                        </div>","O_4_2_P",""
"","","","","","html-keyboard-response","48","283810","0.0-2.0-2.0-0.0-0.3","29","1","2022-04-03 23:26:19","c79472ad15d8b617a4d57d5bf56a810f","128.250.0.197","Mozilla/5.0 (Windows NT 10.0; Win64; x64) AppleWebKit/537.36 (KHTML, like Gecko) Chrome/100.0.4896.60 Safari/537.36","WebKit","Chrome","100.0.4896.60","Windows","10.0","null","null","","","<p style=""font-size:64px;"">+</p>","O_4_2_P",""
"","","","","","html-keyboard-response","49","285062","0.0-2.0-2.0-0.0-1.3","29","1","2022-04-03 23:26:19","c79472ad15d8b617a4d57d5bf56a810f","128.250.0.197","Mozilla/5.0 (Windows NT 10.0; Win64; x64) AppleWebKit/537.36 (KHTML, like Gecko) Chrome/100.0.4896.60 Safari/537.36","WebKit","Chrome","100.0.4896.60","Windows","10.0","null","null","","","
                        <div class=pink>
                        <div class=""centered"">
                            <p style=""font-size: 24px""><b>52%</b></p>
                        </div>","O_4_2_P",""
"","","","","","html-keyboard-response","50","285464","0.0-2.0-2.0-0.0-0.4","29","1","2022-04-03 23:26:19","c79472ad15d8b617a4d57d5bf56a810f","128.250.0.197","Mozilla/5.0 (Windows NT 10.0; Win64; x64) AppleWebKit/537.36 (KHTML, like Gecko) Chrome/100.0.4896.60 Safari/537.36","WebKit","Chrome","100.0.4896.60","Windows","10.0","null","null","","","<p style=""font-size:64px;"">+</p>","O_4_2_P",""
"","","","","","html-keyboard-response","51","286721","0.0-2.0-2.0-0.0-1.4","29","1","2022-04-03 23:26:19","c79472ad15d8b617a4d57d5bf56a810f","128.250.0.197","Mozilla/5.0 (Windows NT 10.0; Win64; x64) AppleWebKit/537.36 (KHTML, like Gecko) Chrome/100.0.4896.60 Safari/537.36","WebKit","Chrome","100.0.4896.60","Windows","10.0","null","null","","","
                        <div class=orange>
                        <div class=""centered"">
                            <p style=""font-size: 24px""><b>54%</b></p>
                        </div>","O_4_2_P",""
"","","","","","html-keyboard-response","52","287124","0.0-2.0-2.0-0.0-0.5","29","1","2022-04-03 23:26:19","c79472ad15d8b617a4d57d5bf56a810f","128.250.0.197","Mozilla/5.0 (Windows NT 10.0; Win64; x64) AppleWebKit/537.36 (KHTML, like Gecko) Chrome/100.0.4896.60 Safari/537.36","WebKit","Chrome","100.0.4896.60","Windows","10.0","null","null","","","<p style=""font-size:64px;"">+</p>","O_4_2_P",""
"","","","","","html-keyboard-response","53","288375","0.0-2.0-2.0-0.0-1.5","29","1","2022-04-03 23:26:19","c79472ad15d8b617a4d57d5bf56a810f","128.250.0.197","Mozilla/5.0 (Windows NT 10.0; Win64; x64) AppleWebKit/537.36 (KHTML, like Gecko) Chrome/100.0.4896.60 Safari/537.36","WebKit","Chrome","100.0.4896.60","Windows","10.0","null","null","","","
                        <div class=orange>
                        <div class=""centered"">
                            <p style=""font-size: 24px""><b>51%</b></p>
                        </div>","O_4_2_P",""
"","","","","","html-keyboard-response","54","288777","0.0-2.0-2.0-1.0-0.0","29","1","2022-04-03 23:26:19","c79472ad15d8b617a4d57d5bf56a810f","128.250.0.197","Mozilla/5.0 (Windows NT 10.0; Win64; x64) AppleWebKit/537.36 (KHTML, like Gecko) Chrome/100.0.4896.60 Safari/537.36","WebKit","Chrome","100.0.4896.60","Windows","10.0","null","null","","","<p style=""font-size:64px;"">+</p>","O_4_2_P",""
"","","","","","html-keyboard-response","55","290030","0.0-2.0-2.0-1.0-1.0","29","1","2022-04-03 23:26:19","c79472ad15d8b617a4d57d5bf56a810f","128.250.0.197","Mozilla/5.0 (Windows NT 10.0; Win64; x64) AppleWebKit/537.36 (KHTML, like Gecko) Chrome/100.0.4896.60 Safari/537.36","WebKit","Chrome","100.0.4896.60","Windows","10.0","null","null","","","
                        <div class=""pink"">
                        <div class=""centered"">
                            <p style=""font-size: 24px""><b>50%</b></p>
                        </div>","O_4_2_P",""
"","","","","","html-slider-response","56","295851","0.0-2.0-2.0-2.0","29","1","2022-04-03 23:26:19","c79472ad15d8b617a4d57d5bf56a810f","128.250.0.197","Mozilla/5.0 (Windows NT 10.0; Win64; x64) AppleWebKit/537.36 (KHTML, like Gecko) Chrome/100.0.4896.60 Safari/537.36","WebKit","Chrome","100.0.4896.60","Windows","10.0","5820.299999952316","0","","","<div style=""width: 500px; height: 100px;""><p>Place your bid for more information.</p></div>","infoBid","25"
"","","","","","html-keyboard-response","57","296253","0.0-2.0-2.0-3.0-0.0","29","1","2022-04-03 23:26:19","c79472ad15d8b617a4d57d5bf56a810f","128.250.0.197","Mozilla/5.0 (Windows NT 10.0; Win64; x64) AppleWebKit/537.36 (KHTML, like Gecko) Chrome/100.0.4896.60 Safari/537.36","WebKit","Chrome","100.0.4896.60","Windows","10.0","null","null","","","<p style=""font-size:64px;"">+</p>","O_4_2_P",""
"","","","","","html-keyboard-response","58","297506","0.0-2.0-2.0-3.0-1.0","29","1","2022-04-03 23:26:19","c79472ad15d8b617a4d57d5bf56a810f","128.250.0.197","Mozilla/5.0 (Windows NT 10.0; Win64; x64) AppleWebKit/537.36 (KHTML, like Gecko) Chrome/100.0.4896.60 Safari/537.36","WebKit","Chrome","100.0.4896.60","Windows","10.0","null","null","","","<div class=""grey"">
                <div class=""centered"">
                    <p style=""font-size: 24px""><b>???</b></p>
                </div>","O_4_2_P",""
"","","","","","html-keyboard-response","59","298190","0.0-2.0-2.0-4.0-0.0","29","1","2022-04-03 23:26:19","c79472ad15d8b617a4d57d5bf56a810f","128.250.0.197","Mozilla/5.0 (Windows NT 10.0; Win64; x64) AppleWebKit/537.36 (KHTML, like Gecko) Chrome/100.0.4896.60 Safari/537.36","WebKit","Chrome","100.0.4896.60","Windows","10.0","683.7000000476837","f","","","
                      <div class=""row"">

                          <div class=""column"">
                              <div class=""orange""></div>
                              <div class=""leftChoiceText"">
                                  <p style=""font-size: 32px""><b>F</b></p>
                              </div>
                          </div>

                          <div class=""column"">
                              <div class=""pink""></div>
                              <div class=""rightChoiceText"">
                                  <p style=""font-size: 32px""><b>J</b></p>
                              </div>
                          </div>

                      </div>

                      <div class=""centeredTop"">
                          Which colour do you<br>
                          predict will win?
                      </div>","O_4_2_P",""
"","","","","","html-keyboard-response","60","299694","0.0-2.0-2.0-4.0-1.0","29","1","2022-04-03 23:26:19","c79472ad15d8b617a4d57d5bf56a810f","128.250.0.197","Mozilla/5.0 (Windows NT 10.0; Win64; x64) AppleWebKit/537.36 (KHTML, like Gecko) Chrome/100.0.4896.60 Safari/537.36","WebKit","Chrome","100.0.4896.60","Windows","10.0","null","null","","","<p style=""font-size:64px;"">+</p>","O_4_2_P",""
"","","","","","html-keyboard-response","61","300095","0.0-2.0-3.0-0.0-0.0","29","1","2022-04-03 23:26:19","c79472ad15d8b617a4d57d5bf56a810f","128.250.0.197","Mozilla/5.0 (Windows NT 10.0; Win64; x64) AppleWebKit/537.36 (KHTML, like Gecko) Chrome/100.0.4896.60 Safari/537.36","WebKit","Chrome","100.0.4896.60","Windows","10.0","null","null","","","<p style=""font-size:64px;"">+</p>","P_2_3_O",""
"","","","","","html-keyboard-response","62","301348","0.0-2.0-3.0-0.0-1.0","29","1","2022-04-03 23:26:19","c79472ad15d8b617a4d57d5bf56a810f","128.250.0.197","Mozilla/5.0 (Windows NT 10.0; Win64; x64) AppleWebKit/537.36 (KHTML, like Gecko) Chrome/100.0.4896.60 Safari/537.36","WebKit","Chrome","100.0.4896.60","Windows","10.0","null","null","","","
                        <div class=orange>
                        <div class=""centered"">
                            <p style=""font-size: 24px""><b>52%</b></p>
                        </div>","P_2_3_O",""
"","","","","","html-keyboard-response","63","301750","0.0-2.0-3.0-0.0-0.1","29","1","2022-04-03 23:26:19","c79472ad15d8b617a4d57d5bf56a810f","128.250.0.197","Mozilla/5.0 (Windows NT 10.0; Win64; x64) AppleWebKit/537.36 (KHTML, like Gecko) Chrome/100.0.4896.60 Safari/537.36","WebKit","Chrome","100.0.4896.60","Windows","10.0","null","null","","","<p style=""font-size:64px;"">+</p>","P_2_3_O",""
"","","","","","html-keyboard-response","64","303002","0.0-2.0-3.0-0.0-1.1","29","1","2022-04-03 23:26:19","c79472ad15d8b617a4d57d5bf56a810f","128.250.0.197","Mozilla/5.0 (Windows NT 10.0; Win64; x64) AppleWebKit/537.36 (KHTML, like Gecko) Chrome/100.0.4896.60 Safari/537.36","WebKit","Chrome","100.0.4896.60","Windows","10.0","null","null","","","
                        <div class=pink>
                        <div class=""centered"">
                            <p style=""font-size: 24px""><b>53%</b></p>
                        </div>","P_2_3_O",""
"","","","","","html-keyboard-response","65","303404","0.0-2.0-3.0-0.0-0.2","29","1","2022-04-03 23:26:19","c79472ad15d8b617a4d57d5bf56a810f","128.250.0.197","Mozilla/5.0 (Windows NT 10.0; Win64; x64) AppleWebKit/537.36 (KHTML, like Gecko) Chrome/100.0.4896.60 Safari/537.36","WebKit","Chrome","100.0.4896.60","Windows","10.0","null","null","","","<p style=""font-size:64px;"">+</p>","P_2_3_O",""
"","","","","","html-keyboard-response","66","304656","0.0-2.0-3.0-0.0-1.2","29","1","2022-04-03 23:26:19","c79472ad15d8b617a4d57d5bf56a810f","128.250.0.197","Mozilla/5.0 (Windows NT 10.0; Win64; x64) AppleWebKit/537.36 (KHTML, like Gecko) Chrome/100.0.4896.60 Safari/537.36","WebKit","Chrome","100.0.4896.60","Windows","10.0","null","null","","","
                        <div class=pink>
                        <div class=""centered"">
                            <p style=""font-size: 24px""><b>54%</b></p>
                        </div>","P_2_3_O",""
"","","","","","html-keyboard-response","67","305057","0.0-2.0-3.0-0.0-0.3","29","1","2022-04-03 23:26:19","c79472ad15d8b617a4d57d5bf56a810f","128.250.0.197","Mozilla/5.0 (Windows NT 10.0; Win64; x64) AppleWebKit/537.36 (KHTML, like Gecko) Chrome/100.0.4896.60 Safari/537.36","WebKit","Chrome","100.0.4896.60","Windows","10.0","null","null","","","<p style=""font-size:64px;"">+</p>","P_2_3_O",""
"","","","","","html-keyboard-response","68","306309","0.0-2.0-3.0-0.0-1.3","29","1","2022-04-03 23:26:19","c79472ad15d8b617a4d57d5bf56a810f","128.250.0.197","Mozilla/5.0 (Windows NT 10.0; Win64; x64) AppleWebKit/537.36 (KHTML, like Gecko) Chrome/100.0.4896.60 Safari/537.36","WebKit","Chrome","100.0.4896.60","Windows","10.0","null","null","","","
                        <div class=pink>
                        <div class=""centered"">
                            <p style=""font-size: 24px""><b>53%</b></p>
                        </div>","P_2_3_O",""
"","","","","","html-keyboard-response","69","306711","0.0-2.0-3.0-0.0-0.4","29","1","2022-04-03 23:26:19","c79472ad15d8b617a4d57d5bf56a810f","128.250.0.197","Mozilla/5.0 (Windows NT 10.0; Win64; x64) AppleWebKit/537.36 (KHTML, like Gecko) Chrome/100.0.4896.60 Safari/537.36","WebKit","Chrome","100.0.4896.60","Windows","10.0","null","null","","","<p style=""font-size:64px;"">+</p>","P_2_3_O",""
"","","","","","html-keyboard-response","70","307964","0.0-2.0-3.0-0.0-1.4","29","1","2022-04-03 23:26:19","c79472ad15d8b617a4d57d5bf56a810f","128.250.0.197","Mozilla/5.0 (Windows NT 10.0; Win64; x64) AppleWebKit/537.36 (KHTML, like Gecko) Chrome/100.0.4896.60 Safari/537.36","WebKit","Chrome","100.0.4896.60","Windows","10.0","null","null","","","
                        <div class=orange>
                        <div class=""centered"">
                            <p style=""font-size: 24px""><b>52%</b></p>
                        </div>","P_2_3_O",""
"","","","","","html-keyboard-response","71","308366","0.0-2.0-3.0-0.0-0.5","29","1","2022-04-03 23:26:19","c79472ad15d8b617a4d57d5bf56a810f","128.250.0.197","Mozilla/5.0 (Windows NT 10.0; Win64; x64) AppleWebKit/537.36 (KHTML, like Gecko) Chrome/100.0.4896.60 Safari/537.36","WebKit","Chrome","100.0.4896.60","Windows","10.0","null","null","","","<p style=""font-size:64px;"">+</p>","P_2_3_O",""
"","","","","","html-keyboard-response","72","309618","0.0-2.0-3.0-0.0-1.5","29","1","2022-04-03 23:26:19","c79472ad15d8b617a4d57d5bf56a810f","128.250.0.197","Mozilla/5.0 (Windows NT 10.0; Win64; x64) AppleWebKit/537.36 (KHTML, like Gecko) Chrome/100.0.4896.60 Safari/537.36","WebKit","Chrome","100.0.4896.60","Windows","10.0","null","null","","","
                        <div class=orange>
                        <div class=""centered"">
                            <p style=""font-size: 24px""><b>54%</b></p>
                        </div>","P_2_3_O",""
"","","","","","html-keyboard-response","73","310020","0.0-2.0-3.0-1.0-0.0","29","1","2022-04-03 23:26:19","c79472ad15d8b617a4d57d5bf56a810f","128.250.0.197","Mozilla/5.0 (Windows NT 10.0; Win64; x64) AppleWebKit/537.36 (KHTML, like Gecko) Chrome/100.0.4896.60 Safari/537.36","WebKit","Chrome","100.0.4896.60","Windows","10.0","null","null","","","<p style=""font-size:64px;"">+</p>","P_2_3_O",""
"","","","","","html-keyboard-response","74","311272","0.0-2.0-3.0-1.0-1.0","29","1","2022-04-03 23:26:19","c79472ad15d8b617a4d57d5bf56a810f","128.250.0.197","Mozilla/5.0 (Windows NT 10.0; Win64; x64) AppleWebKit/537.36 (KHTML, like Gecko) Chrome/100.0.4896.60 Safari/537.36","WebKit","Chrome","100.0.4896.60","Windows","10.0","null","null","","","
                        <div class=""orange"">
                        <div class=""centered"">
                            <p style=""font-size: 24px""><b>50%</b></p>
                        </div>","P_2_3_O",""
"","","","","","html-slider-response","75","315162","0.0-2.0-3.0-2.0","29","1","2022-04-03 23:26:19","c79472ad15d8b617a4d57d5bf56a810f","128.250.0.197","Mozilla/5.0 (Windows NT 10.0; Win64; x64) AppleWebKit/537.36 (KHTML, like Gecko) Chrome/100.0.4896.60 Safari/537.36","WebKit","Chrome","100.0.4896.60","Windows","10.0","3889.699999809265","40","","","<div style=""width: 500px; height: 100px;""><p>Place your bid for more information.</p></div>","infoBid","11"
"","","","","","html-keyboard-response","76","315564","0.0-2.0-3.0-3.0-0.0","29","1","2022-04-03 23:26:19","c79472ad15d8b617a4d57d5bf56a810f","128.250.0.197","Mozilla/5.0 (Windows NT 10.0; Win64; x64) AppleWebKit/537.36 (KHTML, like Gecko) Chrome/100.0.4896.60 Safari/537.36","WebKit","Chrome","100.0.4896.60","Windows","10.0","null","null","","","<p style=""font-size:64px;"">+</p>","P_2_3_O",""
"","","","","","html-keyboard-response","77","316816","0.0-2.0-3.0-3.0-1.0","29","1","2022-04-03 23:26:19","c79472ad15d8b617a4d57d5bf56a810f","128.250.0.197","Mozilla/5.0 (Windows NT 10.0; Win64; x64) AppleWebKit/537.36 (KHTML, like Gecko) Chrome/100.0.4896.60 Safari/537.36","WebKit","Chrome","100.0.4896.60","Windows","10.0","null","null","","","<div class=orange>
                <div class=""centered"">
                    <p style=""font-size: 24px""><b>51%</b></p>
                </div>","P_2_3_O",""
"","","","","","html-keyboard-response","78","317417","0.0-2.0-3.0-4.0-0.0","29","1","2022-04-03 23:26:19","c79472ad15d8b617a4d57d5bf56a810f","128.250.0.197","Mozilla/5.0 (Windows NT 10.0; Win64; x64) AppleWebKit/537.36 (KHTML, like Gecko) Chrome/100.0.4896.60 Safari/537.36","WebKit","Chrome","100.0.4896.60","Windows","10.0","600.0999999046326","j","","","
                      <div class=""row"">

                          <div class=""column"">
                              <div class=""orange""></div>
                              <div class=""leftChoiceText"">
                                  <p style=""font-size: 32px""><b>F</b></p>
                              </div>
                          </div>

                          <div class=""column"">
                              <div class=""pink""></div>
                              <div class=""rightChoiceText"">
                                  <p style=""font-size: 32px""><b>J</b></p>
                              </div>
                          </div>

                      </div>

                      <div class=""centeredTop"">
                          Which colour do you<br>
                          predict will win?
                      </div>","P_2_3_O",""
"","","","","","html-keyboard-response","79","318919","0.0-2.0-3.0-4.0-1.0","29","1","2022-04-03 23:26:19","c79472ad15d8b617a4d57d5bf56a810f","128.250.0.197","Mozilla/5.0 (Windows NT 10.0; Win64; x64) AppleWebKit/537.36 (KHTML, like Gecko) Chrome/100.0.4896.60 Safari/537.36","WebKit","Chrome","100.0.4896.60","Windows","10.0","null","null","","","<p style=""font-size:64px;"">+</p>","P_2_3_O",""
"","","","","","html-keyboard-response","80","319320","0.0-2.0-4.0-0.0-0.0","29","1","2022-04-03 23:26:19","c79472ad15d8b617a4d57d5bf56a810f","128.250.0.197","Mozilla/5.0 (Windows NT 10.0; Win64; x64) AppleWebKit/537.36 (KHTML, like Gecko) Chrome/100.0.4896.60 Safari/537.36","WebKit","Chrome","100.0.4896.60","Windows","10.0","null","null","","","<p style=""font-size:64px;"">+</p>","P_6_4_P",""
"","","","","","html-keyboard-response","81","320572","0.0-2.0-4.0-0.0-1.0","29","1","2022-04-03 23:26:19","c79472ad15d8b617a4d57d5bf56a810f","128.250.0.197","Mozilla/5.0 (Windows NT 10.0; Win64; x64) AppleWebKit/537.36 (KHTML, like Gecko) Chrome/100.0.4896.60 Safari/537.36","WebKit","Chrome","100.0.4896.60","Windows","10.0","null","null","","","
                        <div class=orange>
                        <div class=""centered"">
                            <p style=""font-size: 24px""><b>52%</b></p>
                        </div>","P_6_4_P",""
"","","","","","html-keyboard-response","82","320974","0.0-2.0-4.0-0.0-0.1","29","1","2022-04-03 23:26:19","c79472ad15d8b617a4d57d5bf56a810f","128.250.0.197","Mozilla/5.0 (Windows NT 10.0; Win64; x64) AppleWebKit/537.36 (KHTML, like Gecko) Chrome/100.0.4896.60 Safari/537.36","WebKit","Chrome","100.0.4896.60","Windows","10.0","null","null","","","<p style=""font-size:64px;"">+</p>","P_6_4_P",""
"","","","","","html-keyboard-response","83","322226","0.0-2.0-4.0-0.0-1.1","29","1","2022-04-03 23:26:19","c79472ad15d8b617a4d57d5bf56a810f","128.250.0.197","Mozilla/5.0 (Windows NT 10.0; Win64; x64) AppleWebKit/537.36 (KHTML, like Gecko) Chrome/100.0.4896.60 Safari/537.36","WebKit","Chrome","100.0.4896.60","Windows","10.0","null","null","","","
                        <div class=pink>
                        <div class=""centered"">
                            <p style=""font-size: 24px""><b>55%</b></p>
                        </div>","P_6_4_P",""
"","","","","","html-keyboard-response","84","322628","0.0-2.0-4.0-0.0-0.2","29","1","2022-04-03 23:26:19","c79472ad15d8b617a4d57d5bf56a810f","128.250.0.197","Mozilla/5.0 (Windows NT 10.0; Win64; x64) AppleWebKit/537.36 (KHTML, like Gecko) Chrome/100.0.4896.60 Safari/537.36","WebKit","Chrome","100.0.4896.60","Windows","10.0","null","null","","","<p style=""font-size:64px;"">+</p>","P_6_4_P",""
"","","","","","html-keyboard-response","85","323880","0.0-2.0-4.0-0.0-1.2","29","1","2022-04-03 23:26:19","c79472ad15d8b617a4d57d5bf56a810f","128.250.0.197","Mozilla/5.0 (Windows NT 10.0; Win64; x64) AppleWebKit/537.36 (KHTML, like Gecko) Chrome/100.0.4896.60 Safari/537.36","WebKit","Chrome","100.0.4896.60","Windows","10.0","null","null","","","
                        <div class=orange>
                        <div class=""centered"">
                            <p style=""font-size: 24px""><b>53%</b></p>
                        </div>","P_6_4_P",""
"","","","","","html-keyboard-response","86","324284","0.0-2.0-4.0-0.0-0.3","29","1","2022-04-03 23:26:19","c79472ad15d8b617a4d57d5bf56a810f","128.250.0.197","Mozilla/5.0 (Windows NT 10.0; Win64; x64) AppleWebKit/537.36 (KHTML, like Gecko) Chrome/100.0.4896.60 Safari/537.36","WebKit","Chrome","100.0.4896.60","Windows","10.0","null","null","","","<p style=""font-size:64px;"">+</p>","P_6_4_P",""
"","","","","","html-keyboard-response","87","325535","0.0-2.0-4.0-0.0-1.3","29","1","2022-04-03 23:26:19","c79472ad15d8b617a4d57d5bf56a810f","128.250.0.197","Mozilla/5.0 (Windows NT 10.0; Win64; x64) AppleWebKit/537.36 (KHTML, like Gecko) Chrome/100.0.4896.60 Safari/537.36","WebKit","Chrome","100.0.4896.60","Windows","10.0","null","null","","","
                        <div class=pink>
                        <div class=""centered"">
                            <p style=""font-size: 24px""><b>54%</b></p>
                        </div>","P_6_4_P",""
"","","","","","html-keyboard-response","88","325937","0.0-2.0-4.0-0.0-0.4","29","1","2022-04-03 23:26:19","c79472ad15d8b617a4d57d5bf56a810f","128.250.0.197","Mozilla/5.0 (Windows NT 10.0; Win64; x64) AppleWebKit/537.36 (KHTML, like Gecko) Chrome/100.0.4896.60 Safari/537.36","WebKit","Chrome","100.0.4896.60","Windows","10.0","null","null","","","<p style=""font-size:64px;"">+</p>","P_6_4_P",""
"","","","","","html-keyboard-response","89","327190","0.0-2.0-4.0-0.0-1.4","29","1","2022-04-03 23:26:19","c79472ad15d8b617a4d57d5bf56a810f","128.250.0.197","Mozilla/5.0 (Windows NT 10.0; Win64; x64) AppleWebKit/537.36 (KHTML, like Gecko) Chrome/100.0.4896.60 Safari/537.36","WebKit","Chrome","100.0.4896.60","Windows","10.0","null","null","","","
                        <div class=orange>
                        <div class=""centered"">
                            <p style=""font-size: 24px""><b>52%</b></p>
                        </div>","P_6_4_P",""
"","","","","","html-keyboard-response","90","327591","0.0-2.0-4.0-0.0-0.5","29","1","2022-04-03 23:26:19","c79472ad15d8b617a4d57d5bf56a810f","128.250.0.197","Mozilla/5.0 (Windows NT 10.0; Win64; x64) AppleWebKit/537.36 (KHTML, like Gecko) Chrome/100.0.4896.60 Safari/537.36","WebKit","Chrome","100.0.4896.60","Windows","10.0","null","null","","","<p style=""font-size:64px;"">+</p>","P_6_4_P",""
"","","","","","html-keyboard-response","91","328843","0.0-2.0-4.0-0.0-1.5","29","1","2022-04-03 23:26:19","c79472ad15d8b617a4d57d5bf56a810f","128.250.0.197","Mozilla/5.0 (Windows NT 10.0; Win64; x64) AppleWebKit/537.36 (KHTML, like Gecko) Chrome/100.0.4896.60 Safari/537.36","WebKit","Chrome","100.0.4896.60","Windows","10.0","null","null","","","
                        <div class=pink>
                        <div class=""centered"">
                            <p style=""font-size: 24px""><b>54%</b></p>
                        </div>","P_6_4_P",""
"","","","","","html-keyboard-response","92","329244","0.0-2.0-4.0-1.0-0.0","29","1","2022-04-03 23:26:19","c79472ad15d8b617a4d57d5bf56a810f","128.250.0.197","Mozilla/5.0 (Windows NT 10.0; Win64; x64) AppleWebKit/537.36 (KHTML, like Gecko) Chrome/100.0.4896.60 Safari/537.36","WebKit","Chrome","100.0.4896.60","Windows","10.0","null","null","","","<p style=""font-size:64px;"">+</p>","P_6_4_P",""
"","","","","","html-keyboard-response","93","330496","0.0-2.0-4.0-1.0-1.0","29","1","2022-04-03 23:26:19","c79472ad15d8b617a4d57d5bf56a810f","128.250.0.197","Mozilla/5.0 (Windows NT 10.0; Win64; x64) AppleWebKit/537.36 (KHTML, like Gecko) Chrome/100.0.4896.60 Safari/537.36","WebKit","Chrome","100.0.4896.60","Windows","10.0","null","null","","","
                        <div class=""pink"">
                        <div class=""centered"">
                            <p style=""font-size: 24px""><b>50%</b></p>
                        </div>","P_6_4_P",""
"","","","","","html-slider-response","94","332296","0.0-2.0-4.0-2.0","29","1","2022-04-03 23:26:19","c79472ad15d8b617a4d57d5bf56a810f","128.250.0.197","Mozilla/5.0 (Windows NT 10.0; Win64; x64) AppleWebKit/537.36 (KHTML, like Gecko) Chrome/100.0.4896.60 Safari/537.36","WebKit","Chrome","100.0.4896.60","Windows","10.0","1799.5","0","","","<div style=""width: 500px; height: 100px;""><p>Place your bid for more information.</p></div>","infoBid","24"
"","","","","","html-keyboard-response","95","332699","0.0-2.0-4.0-3.0-0.0","29","1","2022-04-03 23:26:19","c79472ad15d8b617a4d57d5bf56a810f","128.250.0.197","Mozilla/5.0 (Windows NT 10.0; Win64; x64) AppleWebKit/537.36 (KHTML, like Gecko) Chrome/100.0.4896.60 Safari/537.36","WebKit","Chrome","100.0.4896.60","Windows","10.0","null","null","","","<p style=""font-size:64px;"">+</p>","P_6_4_P",""
"","","","","","html-keyboard-response","96","333951","0.0-2.0-4.0-3.0-1.0","29","1","2022-04-03 23:26:19","c79472ad15d8b617a4d57d5bf56a810f","128.250.0.197","Mozilla/5.0 (Windows NT 10.0; Win64; x64) AppleWebKit/537.36 (KHTML, like Gecko) Chrome/100.0.4896.60 Safari/537.36","WebKit","Chrome","100.0.4896.60","Windows","10.0","null","null","","","<div class=""grey"">
                <div class=""centered"">
                    <p style=""font-size: 24px""><b>???</b></p>
                </div>","P_6_4_P",""
"","","","","","html-keyboard-response","97","334815","0.0-2.0-4.0-4.0-0.0","29","1","2022-04-03 23:26:19","c79472ad15d8b617a4d57d5bf56a810f","128.250.0.197","Mozilla/5.0 (Windows NT 10.0; Win64; x64) AppleWebKit/537.36 (KHTML, like Gecko) Chrome/100.0.4896.60 Safari/537.36","WebKit","Chrome","100.0.4896.60","Windows","10.0","862.7999999523163","j","","","
                      <div class=""row"">

                          <div class=""column"">
                              <div class=""orange""></div>
                              <div class=""leftChoiceText"">
                                  <p style=""font-size: 32px""><b>F</b></p>
                              </div>
                          </div>

                          <div class=""column"">
                              <div class=""pink""></div>
                              <div class=""rightChoiceText"">
                                  <p style=""font-size: 32px""><b>J</b></p>
                              </div>
                          </div>

                      </div>

                      <div class=""centeredTop"">
                          Which colour do you<br>
                          predict will win?
                      </div>","P_6_4_P",""
"","","","","","html-keyboard-response","98","336320","0.0-2.0-4.0-4.0-1.0","29","1","2022-04-03 23:26:19","c79472ad15d8b617a4d57d5bf56a810f","128.250.0.197","Mozilla/5.0 (Windows NT 10.0; Win64; x64) AppleWebKit/537.36 (KHTML, like Gecko) Chrome/100.0.4896.60 Safari/537.36","WebKit","Chrome","100.0.4896.60","Windows","10.0","null","null","","","<p style=""font-size:64px;"">+</p>","P_6_4_P",""
"","","","","","html-keyboard-response","99","336722","0.0-2.0-5.0-0.0-0.0","29","1","2022-04-03 23:26:19","c79472ad15d8b617a4d57d5bf56a810f","128.250.0.197","Mozilla/5.0 (Windows NT 10.0; Win64; x64) AppleWebKit/537.36 (KHTML, like Gecko) Chrome/100.0.4896.60 Safari/537.36","WebKit","Chrome","100.0.4896.60","Windows","10.0","null","null","","","<p style=""font-size:64px;"">+</p>","P_6_5_O",""
"","","","","","html-keyboard-response","100","337974","0.0-2.0-5.0-0.0-1.0","29","1","2022-04-03 23:26:19","c79472ad15d8b617a4d57d5bf56a810f","128.250.0.197","Mozilla/5.0 (Windows NT 10.0; Win64; x64) AppleWebKit/537.36 (KHTML, like Gecko) Chrome/100.0.4896.60 Safari/537.36","WebKit","Chrome","100.0.4896.60","Windows","10.0","null","null","","","
                        <div class=orange>
                        <div class=""centered"">
                            <p style=""font-size: 24px""><b>52%</b></p>
                        </div>","P_6_5_O",""
"","","","","","html-keyboard-response","101","338376","0.0-2.0-5.0-0.0-0.1","29","1","2022-04-03 23:26:19","c79472ad15d8b617a4d57d5bf56a810f","128.250.0.197","Mozilla/5.0 (Windows NT 10.0; Win64; x64) AppleWebKit/537.36 (KHTML, like Gecko) Chrome/100.0.4896.60 Safari/537.36","WebKit","Chrome","100.0.4896.60","Windows","10.0","null","null","","","<p style=""font-size:64px;"">+</p>","P_6_5_O",""
"","","","","","html-keyboard-response","102","339631","0.0-2.0-5.0-0.0-1.1","29","1","2022-04-03 23:26:19","c79472ad15d8b617a4d57d5bf56a810f","128.250.0.197","Mozilla/5.0 (Windows NT 10.0; Win64; x64) AppleWebKit/537.36 (KHTML, like Gecko) Chrome/100.0.4896.60 Safari/537.36","WebKit","Chrome","100.0.4896.60","Windows","10.0","null","null","","","
                        <div class=orange>
                        <div class=""centered"">
                            <p style=""font-size: 24px""><b>54%</b></p>
                        </div>","P_6_5_O",""
"","","","","","html-keyboard-response","103","340032","0.0-2.0-5.0-0.0-0.2","29","1","2022-04-03 23:26:19","c79472ad15d8b617a4d57d5bf56a810f","128.250.0.197","Mozilla/5.0 (Windows NT 10.0; Win64; x64) AppleWebKit/537.36 (KHTML, like Gecko) Chrome/100.0.4896.60 Safari/537.36","WebKit","Chrome","100.0.4896.60","Windows","10.0","null","null","","","<p style=""font-size:64px;"">+</p>","P_6_5_O",""
"","","","","","html-keyboard-response","104","341285","0.0-2.0-5.0-0.0-1.2","29","1","2022-04-03 23:26:19","c79472ad15d8b617a4d57d5bf56a810f","128.250.0.197","Mozilla/5.0 (Windows NT 10.0; Win64; x64) AppleWebKit/537.36 (KHTML, like Gecko) Chrome/100.0.4896.60 Safari/537.36","WebKit","Chrome","100.0.4896.60","Windows","10.0","null","null","","","
                        <div class=pink>
                        <div class=""centered"">
                            <p style=""font-size: 24px""><b>55%</b></p>
                        </div>","P_6_5_O",""
"","","","","","html-keyboard-response","105","341688","0.0-2.0-5.0-0.0-0.3","29","1","2022-04-03 23:26:19","c79472ad15d8b617a4d57d5bf56a810f","128.250.0.197","Mozilla/5.0 (Windows NT 10.0; Win64; x64) AppleWebKit/537.36 (KHTML, like Gecko) Chrome/100.0.4896.60 Safari/537.36","WebKit","Chrome","100.0.4896.60","Windows","10.0","null","null","","","<p style=""font-size:64px;"">+</p>","P_6_5_O",""
"","","","","","html-keyboard-response","106","342939","0.0-2.0-5.0-0.0-1.3","29","1","2022-04-03 23:26:19","c79472ad15d8b617a4d57d5bf56a810f","128.250.0.197","Mozilla/5.0 (Windows NT 10.0; Win64; x64) AppleWebKit/537.36 (KHTML, like Gecko) Chrome/100.0.4896.60 Safari/537.36","WebKit","Chrome","100.0.4896.60","Windows","10.0","null","null","","","
                        <div class=pink>
                        <div class=""centered"">
                            <p style=""font-size: 24px""><b>55%</b></p>
                        </div>","P_6_5_O",""
"","","","","","html-keyboard-response","107","343341","0.0-2.0-5.0-0.0-0.4","29","1","2022-04-03 23:26:19","c79472ad15d8b617a4d57d5bf56a810f","128.250.0.197","Mozilla/5.0 (Windows NT 10.0; Win64; x64) AppleWebKit/537.36 (KHTML, like Gecko) Chrome/100.0.4896.60 Safari/537.36","WebKit","Chrome","100.0.4896.60","Windows","10.0","null","null","","","<p style=""font-size:64px;"">+</p>","P_6_5_O",""
"","","","","","html-keyboard-response","108","344593","0.0-2.0-5.0-0.0-1.4","29","1","2022-04-03 23:26:19","c79472ad15d8b617a4d57d5bf56a810f","128.250.0.197","Mozilla/5.0 (Windows NT 10.0; Win64; x64) AppleWebKit/537.36 (KHTML, like Gecko) Chrome/100.0.4896.60 Safari/537.36","WebKit","Chrome","100.0.4896.60","Windows","10.0","null","null","","","
                        <div class=pink>
                        <div class=""centered"">
                            <p style=""font-size: 24px""><b>54%</b></p>
                        </div>","P_6_5_O",""
"","","","","","html-keyboard-response","109","344994","0.0-2.0-5.0-0.0-0.5","29","1","2022-04-03 23:26:19","c79472ad15d8b617a4d57d5bf56a810f","128.250.0.197","Mozilla/5.0 (Windows NT 10.0; Win64; x64) AppleWebKit/537.36 (KHTML, like Gecko) Chrome/100.0.4896.60 Safari/537.36","WebKit","Chrome","100.0.4896.60","Windows","10.0","null","null","","","<p style=""font-size:64px;"">+</p>","P_6_5_O",""
"","","","","","html-keyboard-response","110","346250","0.0-2.0-5.0-0.0-1.5","29","1","2022-04-03 23:26:19","c79472ad15d8b617a4d57d5bf56a810f","128.250.0.197","Mozilla/5.0 (Windows NT 10.0; Win64; x64) AppleWebKit/537.36 (KHTML, like Gecko) Chrome/100.0.4896.60 Safari/537.36","WebKit","Chrome","100.0.4896.60","Windows","10.0","null","null","","","
                        <div class=orange>
                        <div class=""centered"">
                            <p style=""font-size: 24px""><b>52%</b></p>
                        </div>","P_6_5_O",""
"","","","","","html-keyboard-response","111","346652","0.0-2.0-5.0-1.0-0.0","29","1","2022-04-03 23:26:19","c79472ad15d8b617a4d57d5bf56a810f","128.250.0.197","Mozilla/5.0 (Windows NT 10.0; Win64; x64) AppleWebKit/537.36 (KHTML, like Gecko) Chrome/100.0.4896.60 Safari/537.36","WebKit","Chrome","100.0.4896.60","Windows","10.0","null","null","","","<p style=""font-size:64px;"">+</p>","P_6_5_O",""
"","","","","","html-keyboard-response","112","347904","0.0-2.0-5.0-1.0-1.0","29","1","2022-04-03 23:26:19","c79472ad15d8b617a4d57d5bf56a810f","128.250.0.197","Mozilla/5.0 (Windows NT 10.0; Win64; x64) AppleWebKit/537.36 (KHTML, like Gecko) Chrome/100.0.4896.60 Safari/537.36","WebKit","Chrome","100.0.4896.60","Windows","10.0","null","null","","","
                        <div class=""orange"">
                        <div class=""centered"">
                            <p style=""font-size: 24px""><b>50%</b></p>
                        </div>","P_6_5_O",""
"","","","","","html-slider-response","113","350803","0.0-2.0-5.0-2.0","29","1","2022-04-03 23:26:19","c79472ad15d8b617a4d57d5bf56a810f","128.250.0.197","Mozilla/5.0 (Windows NT 10.0; Win64; x64) AppleWebKit/537.36 (KHTML, like Gecko) Chrome/100.0.4896.60 Safari/537.36","WebKit","Chrome","100.0.4896.60","Windows","10.0","2898.5999999046326","0","","","<div style=""width: 500px; height: 100px;""><p>Place your bid for more information.</p></div>","infoBid","9"
"","","","","","html-keyboard-response","114","351206","0.0-2.0-5.0-3.0-0.0","29","1","2022-04-03 23:26:19","c79472ad15d8b617a4d57d5bf56a810f","128.250.0.197","Mozilla/5.0 (Windows NT 10.0; Win64; x64) AppleWebKit/537.36 (KHTML, like Gecko) Chrome/100.0.4896.60 Safari/537.36","WebKit","Chrome","100.0.4896.60","Windows","10.0","null","null","","","<p style=""font-size:64px;"">+</p>","P_6_5_O",""
"","","","","","html-keyboard-response","115","352458","0.0-2.0-5.0-3.0-1.0","29","1","2022-04-03 23:26:19","c79472ad15d8b617a4d57d5bf56a810f","128.250.0.197","Mozilla/5.0 (Windows NT 10.0; Win64; x64) AppleWebKit/537.36 (KHTML, like Gecko) Chrome/100.0.4896.60 Safari/537.36","WebKit","Chrome","100.0.4896.60","Windows","10.0","null","null","","","<div class=""grey"">
                <div class=""centered"">
                    <p style=""font-size: 24px""><b>???</b></p>
                </div>","P_6_5_O",""
"","","","","","html-keyboard-response","116","352861","0.0-2.0-5.0-4.0-0.0","29","1","2022-04-03 23:26:19","c79472ad15d8b617a4d57d5bf56a810f","128.250.0.197","Mozilla/5.0 (Windows NT 10.0; Win64; x64) AppleWebKit/537.36 (KHTML, like Gecko) Chrome/100.0.4896.60 Safari/537.36","WebKit","Chrome","100.0.4896.60","Windows","10.0","401.7999999523163","j","","","
                      <div class=""row"">

                          <div class=""column"">
                              <div class=""orange""></div>
                              <div class=""leftChoiceText"">
                                  <p style=""font-size: 32px""><b>F</b></p>
                              </div>
                          </div>

                          <div class=""column"">
                              <div class=""pink""></div>
                              <div class=""rightChoiceText"">
                                  <p style=""font-size: 32px""><b>J</b></p>
                              </div>
                          </div>

                      </div>

                      <div class=""centeredTop"">
                          Which colour do you<br>
                          predict will win?
                      </div>","P_6_5_O",""
"","","","","","html-keyboard-response","117","354375","0.0-2.0-5.0-4.0-1.0","29","1","2022-04-03 23:26:19","c79472ad15d8b617a4d57d5bf56a810f","128.250.0.197","Mozilla/5.0 (Windows NT 10.0; Win64; x64) AppleWebKit/537.36 (KHTML, like Gecko) Chrome/100.0.4896.60 Safari/537.36","WebKit","Chrome","100.0.4896.60","Windows","10.0","null","null","","","<p style=""font-size:64px;"">+</p>","P_6_5_O",""
"","","","","","html-keyboard-response","118","354785","0.0-2.0-6.0-0.0-0.0","29","1","2022-04-03 23:26:19","c79472ad15d8b617a4d57d5bf56a810f","128.250.0.197","Mozilla/5.0 (Windows NT 10.0; Win64; x64) AppleWebKit/537.36 (KHTML, like Gecko) Chrome/100.0.4896.60 Safari/537.36","WebKit","Chrome","100.0.4896.60","Windows","10.0","null","null","","","<p style=""font-size:64px;"">+</p>","P_4_3_P",""
"","","","","","html-keyboard-response","119","356037","0.0-2.0-6.0-0.0-1.0","29","1","2022-04-03 23:26:19","c79472ad15d8b617a4d57d5bf56a810f","128.250.0.197","Mozilla/5.0 (Windows NT 10.0; Win64; x64) AppleWebKit/537.36 (KHTML, like Gecko) Chrome/100.0.4896.60 Safari/537.36","WebKit","Chrome","100.0.4896.60","Windows","10.0","null","null","","","
                        <div class=pink>
                        <div class=""centered"">
                            <p style=""font-size: 24px""><b>55%</b></p>
                        </div>","P_4_3_P",""
"","","","","","html-keyboard-response","120","356439","0.0-2.0-6.0-0.0-0.1","29","1","2022-04-03 23:26:19","c79472ad15d8b617a4d57d5bf56a810f","128.250.0.197","Mozilla/5.0 (Windows NT 10.0; Win64; x64) AppleWebKit/537.36 (KHTML, like Gecko) Chrome/100.0.4896.60 Safari/537.36","WebKit","Chrome","100.0.4896.60","Windows","10.0","null","null","","","<p style=""font-size:64px;"">+</p>","P_4_3_P",""
"","","","","","html-keyboard-response","121","357691","0.0-2.0-6.0-0.0-1.1","29","1","2022-04-03 23:26:19","c79472ad15d8b617a4d57d5bf56a810f","128.250.0.197","Mozilla/5.0 (Windows NT 10.0; Win64; x64) AppleWebKit/537.36 (KHTML, like Gecko) Chrome/100.0.4896.60 Safari/537.36","WebKit","Chrome","100.0.4896.60","Windows","10.0","null","null","","","
                        <div class=orange>
                        <div class=""centered"">
                            <p style=""font-size: 24px""><b>53%</b></p>
                        </div>","P_4_3_P",""
"","","","","","html-keyboard-response","122","358093","0.0-2.0-6.0-0.0-0.2","29","1","2022-04-03 23:26:19","c79472ad15d8b617a4d57d5bf56a810f","128.250.0.197","Mozilla/5.0 (Windows NT 10.0; Win64; x64) AppleWebKit/537.36 (KHTML, like Gecko) Chrome/100.0.4896.60 Safari/537.36","WebKit","Chrome","100.0.4896.60","Windows","10.0","null","null","","","<p style=""font-size:64px;"">+</p>","P_4_3_P",""
"","","","","","html-keyboard-response","123","359344","0.0-2.0-6.0-0.0-1.2","29","1","2022-04-03 23:26:19","c79472ad15d8b617a4d57d5bf56a810f","128.250.0.197","Mozilla/5.0 (Windows NT 10.0; Win64; x64) AppleWebKit/537.36 (KHTML, like Gecko) Chrome/100.0.4896.60 Safari/537.36","WebKit","Chrome","100.0.4896.60","Windows","10.0","null","null","","","
                        <div class=pink>
                        <div class=""centered"">
                            <p style=""font-size: 24px""><b>53%</b></p>
                        </div>","P_4_3_P",""
"","","","","","html-keyboard-response","124","359747","0.0-2.0-6.0-0.0-0.3","29","1","2022-04-03 23:26:19","c79472ad15d8b617a4d57d5bf56a810f","128.250.0.197","Mozilla/5.0 (Windows NT 10.0; Win64; x64) AppleWebKit/537.36 (KHTML, like Gecko) Chrome/100.0.4896.60 Safari/537.36","WebKit","Chrome","100.0.4896.60","Windows","10.0","null","null","","","<p style=""font-size:64px;"">+</p>","P_4_3_P",""
"","","","","","html-keyboard-response","125","360998","0.0-2.0-6.0-0.0-1.3","29","1","2022-04-03 23:26:19","c79472ad15d8b617a4d57d5bf56a810f","128.250.0.197","Mozilla/5.0 (Windows NT 10.0; Win64; x64) AppleWebKit/537.36 (KHTML, like Gecko) Chrome/100.0.4896.60 Safari/537.36","WebKit","Chrome","100.0.4896.60","Windows","10.0","null","null","","","
                        <div class=pink>
                        <div class=""centered"">
                            <p style=""font-size: 24px""><b>53%</b></p>
                        </div>","P_4_3_P",""
"","","","","","html-keyboard-response","126","361399","0.0-2.0-6.0-0.0-0.4","29","1","2022-04-03 23:26:19","c79472ad15d8b617a4d57d5bf56a810f","128.250.0.197","Mozilla/5.0 (Windows NT 10.0; Win64; x64) AppleWebKit/537.36 (KHTML, like Gecko) Chrome/100.0.4896.60 Safari/537.36","WebKit","Chrome","100.0.4896.60","Windows","10.0","null","null","","","<p style=""font-size:64px;"">+</p>","P_4_3_P",""
"","","","","","html-keyboard-response","127","362650","0.0-2.0-6.0-0.0-1.4","29","1","2022-04-03 23:26:19","c79472ad15d8b617a4d57d5bf56a810f","128.250.0.197","Mozilla/5.0 (Windows NT 10.0; Win64; x64) AppleWebKit/537.36 (KHTML, like Gecko) Chrome/100.0.4896.60 Safari/537.36","WebKit","Chrome","100.0.4896.60","Windows","10.0","null","null","","","
                        <div class=orange>
                        <div class=""centered"">
                            <p style=""font-size: 24px""><b>52%</b></p>
                        </div>","P_4_3_P",""
"","","","","","html-keyboard-response","128","363052","0.0-2.0-6.0-0.0-0.5","29","1","2022-04-03 23:26:19","c79472ad15d8b617a4d57d5bf56a810f","128.250.0.197","Mozilla/5.0 (Windows NT 10.0; Win64; x64) AppleWebKit/537.36 (KHTML, like Gecko) Chrome/100.0.4896.60 Safari/537.36","WebKit","Chrome","100.0.4896.60","Windows","10.0","null","null","","","<p style=""font-size:64px;"">+</p>","P_4_3_P",""
"","","","","","html-keyboard-response","129","364304","0.0-2.0-6.0-0.0-1.5","29","1","2022-04-03 23:26:19","c79472ad15d8b617a4d57d5bf56a810f","128.250.0.197","Mozilla/5.0 (Windows NT 10.0; Win64; x64) AppleWebKit/537.36 (KHTML, like Gecko) Chrome/100.0.4896.60 Safari/537.36","WebKit","Chrome","100.0.4896.60","Windows","10.0","null","null","","","
                        <div class=orange>
                        <div class=""centered"">
                            <p style=""font-size: 24px""><b>52%</b></p>
                        </div>","P_4_3_P",""
"","","","","","html-keyboard-response","130","364705","0.0-2.0-6.0-1.0-0.0","29","1","2022-04-03 23:26:19","c79472ad15d8b617a4d57d5bf56a810f","128.250.0.197","Mozilla/5.0 (Windows NT 10.0; Win64; x64) AppleWebKit/537.36 (KHTML, like Gecko) Chrome/100.0.4896.60 Safari/537.36","WebKit","Chrome","100.0.4896.60","Windows","10.0","null","null","","","<p style=""font-size:64px;"">+</p>","P_4_3_P",""
"","","","","","html-keyboard-response","131","365957","0.0-2.0-6.0-1.0-1.0","29","1","2022-04-03 23:26:19","c79472ad15d8b617a4d57d5bf56a810f","128.250.0.197","Mozilla/5.0 (Windows NT 10.0; Win64; x64) AppleWebKit/537.36 (KHTML, like Gecko) Chrome/100.0.4896.60 Safari/537.36","WebKit","Chrome","100.0.4896.60","Windows","10.0","null","null","","","
                        <div class=""pink"">
                        <div class=""centered"">
                            <p style=""font-size: 24px""><b>50%</b></p>
                        </div>","P_4_3_P",""
"","","","","","html-slider-response","132","369799","0.0-2.0-6.0-2.0","29","1","2022-04-03 23:26:19","c79472ad15d8b617a4d57d5bf56a810f","128.250.0.197","Mozilla/5.0 (Windows NT 10.0; Win64; x64) AppleWebKit/537.36 (KHTML, like Gecko) Chrome/100.0.4896.60 Safari/537.36","WebKit","Chrome","100.0.4896.60","Windows","10.0","3841.2999999523163","0","","","<div style=""width: 500px; height: 100px;""><p>Place your bid for more information.</p></div>","infoBid","45"
"","","","","","html-keyboard-response","133","370201","0.0-2.0-6.0-3.0-0.0","29","1","2022-04-03 23:26:19","c79472ad15d8b617a4d57d5bf56a810f","128.250.0.197","Mozilla/5.0 (Windows NT 10.0; Win64; x64) AppleWebKit/537.36 (KHTML, like Gecko) Chrome/100.0.4896.60 Safari/537.36","WebKit","Chrome","100.0.4896.60","Windows","10.0","null","null","","","<p style=""font-size:64px;"">+</p>","P_4_3_P",""
"","","","","","html-keyboard-response","134","371454","0.0-2.0-6.0-3.0-1.0","29","1","2022-04-03 23:26:19","c79472ad15d8b617a4d57d5bf56a810f","128.250.0.197","Mozilla/5.0 (Windows NT 10.0; Win64; x64) AppleWebKit/537.36 (KHTML, like Gecko) Chrome/100.0.4896.60 Safari/537.36","WebKit","Chrome","100.0.4896.60","Windows","10.0","null","null","","","<div class=""grey"">
                <div class=""centered"">
                    <p style=""font-size: 24px""><b>???</b></p>
                </div>","P_4_3_P",""
"","","","","","html-keyboard-response","135","371974","0.0-2.0-6.0-4.0-0.0","29","1","2022-04-03 23:26:19","c79472ad15d8b617a4d57d5bf56a810f","128.250.0.197","Mozilla/5.0 (Windows NT 10.0; Win64; x64) AppleWebKit/537.36 (KHTML, like Gecko) Chrome/100.0.4896.60 Safari/537.36","WebKit","Chrome","100.0.4896.60","Windows","10.0","520.1000001430511","j","","","
                      <div class=""row"">

                          <div class=""column"">
                              <div class=""orange""></div>
                              <div class=""leftChoiceText"">
                                  <p style=""font-size: 32px""><b>F</b></p>
                              </div>
                          </div>

                          <div class=""column"">
                              <div class=""pink""></div>
                              <div class=""rightChoiceText"">
                                  <p style=""font-size: 32px""><b>J</b></p>
                              </div>
                          </div>

                      </div>

                      <div class=""centeredTop"">
                          Which colour do you<br>
                          predict will win?
                      </div>","P_4_3_P",""
"","","","","","html-keyboard-response","136","373476","0.0-2.0-6.0-4.0-1.0","29","1","2022-04-03 23:26:19","c79472ad15d8b617a4d57d5bf56a810f","128.250.0.197","Mozilla/5.0 (Windows NT 10.0; Win64; x64) AppleWebKit/537.36 (KHTML, like Gecko) Chrome/100.0.4896.60 Safari/537.36","WebKit","Chrome","100.0.4896.60","Windows","10.0","null","null","","","<p style=""font-size:64px;"">+</p>","P_4_3_P",""
"","","","","","html-keyboard-response","137","373878","0.0-2.0-7.0-0.0-0.0","29","1","2022-04-03 23:26:19","c79472ad15d8b617a4d57d5bf56a810f","128.250.0.197","Mozilla/5.0 (Windows NT 10.0; Win64; x64) AppleWebKit/537.36 (KHTML, like Gecko) Chrome/100.0.4896.60 Safari/537.36","WebKit","Chrome","100.0.4896.60","Windows","10.0","null","null","","","<p style=""font-size:64px;"">+</p>","O_2_3_P",""
"","","","","","html-keyboard-response","138","375131","0.0-2.0-7.0-0.0-1.0","29","1","2022-04-03 23:26:19","c79472ad15d8b617a4d57d5bf56a810f","128.250.0.197","Mozilla/5.0 (Windows NT 10.0; Win64; x64) AppleWebKit/537.36 (KHTML, like Gecko) Chrome/100.0.4896.60 Safari/537.36","WebKit","Chrome","100.0.4896.60","Windows","10.0","null","null","","","
                        <div class=pink>
                        <div class=""centered"">
                            <p style=""font-size: 24px""><b>52%</b></p>
                        </div>","O_2_3_P",""
"","","","","","html-keyboard-response","139","375533","0.0-2.0-7.0-0.0-0.1","29","1","2022-04-03 23:26:19","c79472ad15d8b617a4d57d5bf56a810f","128.250.0.197","Mozilla/5.0 (Windows NT 10.0; Win64; x64) AppleWebKit/537.36 (KHTML, like Gecko) Chrome/100.0.4896.60 Safari/537.36","WebKit","Chrome","100.0.4896.60","Windows","10.0","null","null","","","<p style=""font-size:64px;"">+</p>","O_2_3_P",""
"","","","","","html-keyboard-response","140","376784","0.0-2.0-7.0-0.0-1.1","29","1","2022-04-03 23:26:19","c79472ad15d8b617a4d57d5bf56a810f","128.250.0.197","Mozilla/5.0 (Windows NT 10.0; Win64; x64) AppleWebKit/537.36 (KHTML, like Gecko) Chrome/100.0.4896.60 Safari/537.36","WebKit","Chrome","100.0.4896.60","Windows","10.0","null","null","","","
                        <div class=orange>
                        <div class=""centered"">
                            <p style=""font-size: 24px""><b>54%</b></p>
                        </div>","O_2_3_P",""
"","","","","","html-keyboard-response","141","377195","0.0-2.0-7.0-0.0-0.2","29","1","2022-04-03 23:26:19","c79472ad15d8b617a4d57d5bf56a810f","128.250.0.197","Mozilla/5.0 (Windows NT 10.0; Win64; x64) AppleWebKit/537.36 (KHTML, like Gecko) Chrome/100.0.4896.60 Safari/537.36","WebKit","Chrome","100.0.4896.60","Windows","10.0","null","null","","","<p style=""font-size:64px;"">+</p>","O_2_3_P",""
"","","","","","html-keyboard-response","142","378448","0.0-2.0-7.0-0.0-1.2","29","1","2022-04-03 23:26:19","c79472ad15d8b617a4d57d5bf56a810f","128.250.0.197","Mozilla/5.0 (Windows NT 10.0; Win64; x64) AppleWebKit/537.36 (KHTML, like Gecko) Chrome/100.0.4896.60 Safari/537.36","WebKit","Chrome","100.0.4896.60","Windows","10.0","null","null","","","
                        <div class=orange>
                        <div class=""centered"">
                            <p style=""font-size: 24px""><b>53%</b></p>
                        </div>","O_2_3_P",""
"","","","","","html-keyboard-response","143","378851","0.0-2.0-7.0-0.0-0.3","29","1","2022-04-03 23:26:19","c79472ad15d8b617a4d57d5bf56a810f","128.250.0.197","Mozilla/5.0 (Windows NT 10.0; Win64; x64) AppleWebKit/537.36 (KHTML, like Gecko) Chrome/100.0.4896.60 Safari/537.36","WebKit","Chrome","100.0.4896.60","Windows","10.0","null","null","","","<p style=""font-size:64px;"">+</p>","O_2_3_P",""
"","","","","","html-keyboard-response","144","380114","0.0-2.0-7.0-0.0-1.3","29","1","2022-04-03 23:26:19","c79472ad15d8b617a4d57d5bf56a810f","128.250.0.197","Mozilla/5.0 (Windows NT 10.0; Win64; x64) AppleWebKit/537.36 (KHTML, like Gecko) Chrome/100.0.4896.60 Safari/537.36","WebKit","Chrome","100.0.4896.60","Windows","10.0","null","null","","","
                        <div class=pink>
                        <div class=""centered"">
                            <p style=""font-size: 24px""><b>52%</b></p>
                        </div>","O_2_3_P",""
"","","","","","html-keyboard-response","145","380515","0.0-2.0-7.0-0.0-0.4","29","1","2022-04-03 23:26:19","c79472ad15d8b617a4d57d5bf56a810f","128.250.0.197","Mozilla/5.0 (Windows NT 10.0; Win64; x64) AppleWebKit/537.36 (KHTML, like Gecko) Chrome/100.0.4896.60 Safari/537.36","WebKit","Chrome","100.0.4896.60","Windows","10.0","null","null","","","<p style=""font-size:64px;"">+</p>","O_2_3_P",""
"","","","","","html-keyboard-response","146","381767","0.0-2.0-7.0-0.0-1.4","29","1","2022-04-03 23:26:19","c79472ad15d8b617a4d57d5bf56a810f","128.250.0.197","Mozilla/5.0 (Windows NT 10.0; Win64; x64) AppleWebKit/537.36 (KHTML, like Gecko) Chrome/100.0.4896.60 Safari/537.36","WebKit","Chrome","100.0.4896.60","Windows","10.0","null","null","","","
                        <div class=orange>
                        <div class=""centered"">
                            <p style=""font-size: 24px""><b>53%</b></p>
                        </div>","O_2_3_P",""
"","","","","","html-keyboard-response","147","382168","0.0-2.0-7.0-0.0-0.5","29","1","2022-04-03 23:26:19","c79472ad15d8b617a4d57d5bf56a810f","128.250.0.197","Mozilla/5.0 (Windows NT 10.0; Win64; x64) AppleWebKit/537.36 (KHTML, like Gecko) Chrome/100.0.4896.60 Safari/537.36","WebKit","Chrome","100.0.4896.60","Windows","10.0","null","null","","","<p style=""font-size:64px;"">+</p>","O_2_3_P",""
"","","","","","html-keyboard-response","148","383420","0.0-2.0-7.0-0.0-1.5","29","1","2022-04-03 23:26:19","c79472ad15d8b617a4d57d5bf56a810f","128.250.0.197","Mozilla/5.0 (Windows NT 10.0; Win64; x64) AppleWebKit/537.36 (KHTML, like Gecko) Chrome/100.0.4896.60 Safari/537.36","WebKit","Chrome","100.0.4896.60","Windows","10.0","null","null","","","
                        <div class=pink>
                        <div class=""centered"">
                            <p style=""font-size: 24px""><b>54%</b></p>
                        </div>","O_2_3_P",""
"","","","","","html-keyboard-response","149","383822","0.0-2.0-7.0-1.0-0.0","29","1","2022-04-03 23:26:19","c79472ad15d8b617a4d57d5bf56a810f","128.250.0.197","Mozilla/5.0 (Windows NT 10.0; Win64; x64) AppleWebKit/537.36 (KHTML, like Gecko) Chrome/100.0.4896.60 Safari/537.36","WebKit","Chrome","100.0.4896.60","Windows","10.0","null","null","","","<p style=""font-size:64px;"">+</p>","O_2_3_P",""
"","","","","","html-keyboard-response","150","385073","0.0-2.0-7.0-1.0-1.0","29","1","2022-04-03 23:26:19","c79472ad15d8b617a4d57d5bf56a810f","128.250.0.197","Mozilla/5.0 (Windows NT 10.0; Win64; x64) AppleWebKit/537.36 (KHTML, like Gecko) Chrome/100.0.4896.60 Safari/537.36","WebKit","Chrome","100.0.4896.60","Windows","10.0","null","null","","","
                        <div class=""pink"">
                        <div class=""centered"">
                            <p style=""font-size: 24px""><b>50%</b></p>
                        </div>","O_2_3_P",""
"","","","","","html-slider-response","151","387456","0.0-2.0-7.0-2.0","29","1","2022-04-03 23:26:19","c79472ad15d8b617a4d57d5bf56a810f","128.250.0.197","Mozilla/5.0 (Windows NT 10.0; Win64; x64) AppleWebKit/537.36 (KHTML, like Gecko) Chrome/100.0.4896.60 Safari/537.36","WebKit","Chrome","100.0.4896.60","Windows","10.0","2381.9000000953674","0","","","<div style=""width: 500px; height: 100px;""><p>Place your bid for more information.</p></div>","infoBid","9"
"","","","","","html-keyboard-response","152","387864","0.0-2.0-7.0-3.0-0.0","29","1","2022-04-03 23:26:19","c79472ad15d8b617a4d57d5bf56a810f","128.250.0.197","Mozilla/5.0 (Windows NT 10.0; Win64; x64) AppleWebKit/537.36 (KHTML, like Gecko) Chrome/100.0.4896.60 Safari/537.36","WebKit","Chrome","100.0.4896.60","Windows","10.0","null","null","","","<p style=""font-size:64px;"">+</p>","O_2_3_P",""
"","","","","","html-keyboard-response","153","389116","0.0-2.0-7.0-3.0-1.0","29","1","2022-04-03 23:26:19","c79472ad15d8b617a4d57d5bf56a810f","128.250.0.197","Mozilla/5.0 (Windows NT 10.0; Win64; x64) AppleWebKit/537.36 (KHTML, like Gecko) Chrome/100.0.4896.60 Safari/537.36","WebKit","Chrome","100.0.4896.60","Windows","10.0","null","null","","","<div class=""grey"">
                <div class=""centered"">
                    <p style=""font-size: 24px""><b>???</b></p>
                </div>","O_2_3_P",""
"","","","","","html-keyboard-response","154","390364","0.0-2.0-7.0-4.0-0.0","29","1","2022-04-03 23:26:19","c79472ad15d8b617a4d57d5bf56a810f","128.250.0.197","Mozilla/5.0 (Windows NT 10.0; Win64; x64) AppleWebKit/537.36 (KHTML, like Gecko) Chrome/100.0.4896.60 Safari/537.36","WebKit","Chrome","100.0.4896.60","Windows","10.0","1247.3999998569489","j","","","
                      <div class=""row"">

                          <div class=""column"">
                              <div class=""orange""></div>
                              <div class=""leftChoiceText"">
                                  <p style=""font-size: 32px""><b>F</b></p>
                              </div>
                          </div>

                          <div class=""column"">
                              <div class=""pink""></div>
                              <div class=""rightChoiceText"">
                                  <p style=""font-size: 32px""><b>J</b></p>
                              </div>
                          </div>

                      </div>

                      <div class=""centeredTop"">
                          Which colour do you<br>
                          predict will win?
                      </div>","O_2_3_P",""
"","","","","","html-keyboard-response","155","391867","0.0-2.0-7.0-4.0-1.0","29","1","2022-04-03 23:26:19","c79472ad15d8b617a4d57d5bf56a810f","128.250.0.197","Mozilla/5.0 (Windows NT 10.0; Win64; x64) AppleWebKit/537.36 (KHTML, like Gecko) Chrome/100.0.4896.60 Safari/537.36","WebKit","Chrome","100.0.4896.60","Windows","10.0","null","null","","","<p style=""font-size:64px;"">+</p>","O_2_3_P",""
"","","","","","html-keyboard-response","156","393906","0.0-2.0-8.0","29","1","2022-04-03 23:26:19","c79472ad15d8b617a4d57d5bf56a810f","128.250.0.197","Mozilla/5.0 (Windows NT 10.0; Win64; x64) AppleWebKit/537.36 (KHTML, like Gecko) Chrome/100.0.4896.60 Safari/537.36","WebKit","Chrome","100.0.4896.60","Windows","10.0","2038.2999999523163"," ","","","This is the end of the practice trials.<br><br>
        Press spacebar to begin the experiment.","",""
"","","","","","html-keyboard-response","157","394308","0.0-2.0-9.0-0.0-0.0","29","1","2022-04-03 23:26:19","c79472ad15d8b617a4d57d5bf56a810f","128.250.0.197","Mozilla/5.0 (Windows NT 10.0; Win64; x64) AppleWebKit/537.36 (KHTML, like Gecko) Chrome/100.0.4896.60 Safari/537.36","WebKit","Chrome","100.0.4896.60","Windows","10.0","null","null","","","<p style=""font-size:64px;"">+</p>","P_6_1_O",""
"","","","","","html-keyboard-response","158","395561","0.0-2.0-9.0-0.0-1.0","29","1","2022-04-03 23:26:19","c79472ad15d8b617a4d57d5bf56a810f","128.250.0.197","Mozilla/5.0 (Windows NT 10.0; Win64; x64) AppleWebKit/537.36 (KHTML, like Gecko) Chrome/100.0.4896.60 Safari/537.36","WebKit","Chrome","100.0.4896.60","Windows","10.0","null","null","","","
                        <div class=pink>
                        <div class=""centered"">
                            <p style=""font-size: 24px""><b>54%</b></p>
                        </div>","P_6_1_O",""
"","","","","","html-keyboard-response","159","395966","0.0-2.0-9.0-0.0-0.1","29","1","2022-04-03 23:26:19","c79472ad15d8b617a4d57d5bf56a810f","128.250.0.197","Mozilla/5.0 (Windows NT 10.0; Win64; x64) AppleWebKit/537.36 (KHTML, like Gecko) Chrome/100.0.4896.60 Safari/537.36","WebKit","Chrome","100.0.4896.60","Windows","10.0","null","null","","","<p style=""font-size:64px;"">+</p>","P_6_1_O",""
"","","","","","html-keyboard-response","160","397219","0.0-2.0-9.0-0.0-1.1","29","1","2022-04-03 23:26:19","c79472ad15d8b617a4d57d5bf56a810f","128.250.0.197","Mozilla/5.0 (Windows NT 10.0; Win64; x64) AppleWebKit/537.36 (KHTML, like Gecko) Chrome/100.0.4896.60 Safari/537.36","WebKit","Chrome","100.0.4896.60","Windows","10.0","null","null","","","
                        <div class=orange>
                        <div class=""centered"">
                            <p style=""font-size: 24px""><b>52%</b></p>
                        </div>","P_6_1_O",""
"","","","","","html-keyboard-response","161","397620","0.0-2.0-9.0-0.0-0.2","29","1","2022-04-03 23:26:19","c79472ad15d8b617a4d57d5bf56a810f","128.250.0.197","Mozilla/5.0 (Windows NT 10.0; Win64; x64) AppleWebKit/537.36 (KHTML, like Gecko) Chrome/100.0.4896.60 Safari/537.36","WebKit","Chrome","100.0.4896.60","Windows","10.0","null","null","","","<p style=""font-size:64px;"">+</p>","P_6_1_O",""
"","","","","","html-keyboard-response","162","398873","0.0-2.0-9.0-0.0-1.2","29","1","2022-04-03 23:26:19","c79472ad15d8b617a4d57d5bf56a810f","128.250.0.197","Mozilla/5.0 (Windows NT 10.0; Win64; x64) AppleWebKit/537.36 (KHTML, like Gecko) Chrome/100.0.4896.60 Safari/537.36","WebKit","Chrome","100.0.4896.60","Windows","10.0","null","null","","","
                        <div class=orange>
                        <div class=""centered"">
                            <p style=""font-size: 24px""><b>51%</b></p>
                        </div>","P_6_1_O",""
"","","","","","html-keyboard-response","163","399274","0.0-2.0-9.0-0.0-0.3","29","1","2022-04-03 23:26:19","c79472ad15d8b617a4d57d5bf56a810f","128.250.0.197","Mozilla/5.0 (Windows NT 10.0; Win64; x64) AppleWebKit/537.36 (KHTML, like Gecko) Chrome/100.0.4896.60 Safari/537.36","WebKit","Chrome","100.0.4896.60","Windows","10.0","null","null","","","<p style=""font-size:64px;"">+</p>","P_6_1_O",""
"","","","","","html-keyboard-response","164","400526","0.0-2.0-9.0-0.0-1.3","29","1","2022-04-03 23:26:19","c79472ad15d8b617a4d57d5bf56a810f","128.250.0.197","Mozilla/5.0 (Windows NT 10.0; Win64; x64) AppleWebKit/537.36 (KHTML, like Gecko) Chrome/100.0.4896.60 Safari/537.36","WebKit","Chrome","100.0.4896.60","Windows","10.0","null","null","","","
                        <div class=orange>
                        <div class=""centered"">
                            <p style=""font-size: 24px""><b>51%</b></p>
                        </div>","P_6_1_O",""
"","","","","","html-keyboard-response","165","400929","0.0-2.0-9.0-0.0-0.4","29","1","2022-04-03 23:26:19","c79472ad15d8b617a4d57d5bf56a810f","128.250.0.197","Mozilla/5.0 (Windows NT 10.0; Win64; x64) AppleWebKit/537.36 (KHTML, like Gecko) Chrome/100.0.4896.60 Safari/537.36","WebKit","Chrome","100.0.4896.60","Windows","10.0","null","null","","","<p style=""font-size:64px;"">+</p>","P_6_1_O",""
"","","","","","html-keyboard-response","166","402180","0.0-2.0-9.0-0.0-1.4","29","1","2022-04-03 23:26:19","c79472ad15d8b617a4d57d5bf56a810f","128.250.0.197","Mozilla/5.0 (Windows NT 10.0; Win64; x64) AppleWebKit/537.36 (KHTML, like Gecko) Chrome/100.0.4896.60 Safari/537.36","WebKit","Chrome","100.0.4896.60","Windows","10.0","null","null","","","
                        <div class=pink>
                        <div class=""centered"">
                            <p style=""font-size: 24px""><b>53%</b></p>
                        </div>","P_6_1_O",""
"","","","","","html-keyboard-response","167","402581","0.0-2.0-9.0-0.0-0.5","29","1","2022-04-03 23:26:19","c79472ad15d8b617a4d57d5bf56a810f","128.250.0.197","Mozilla/5.0 (Windows NT 10.0; Win64; x64) AppleWebKit/537.36 (KHTML, like Gecko) Chrome/100.0.4896.60 Safari/537.36","WebKit","Chrome","100.0.4896.60","Windows","10.0","null","null","","","<p style=""font-size:64px;"">+</p>","P_6_1_O",""
"","","","","","html-keyboard-response","168","403833","0.0-2.0-9.0-0.0-1.5","29","1","2022-04-03 23:26:19","c79472ad15d8b617a4d57d5bf56a810f","128.250.0.197","Mozilla/5.0 (Windows NT 10.0; Win64; x64) AppleWebKit/537.36 (KHTML, like Gecko) Chrome/100.0.4896.60 Safari/537.36","WebKit","Chrome","100.0.4896.60","Windows","10.0","null","null","","","
                        <div class=pink>
                        <div class=""centered"">
                            <p style=""font-size: 24px""><b>53%</b></p>
                        </div>","P_6_1_O",""
"","","","","","html-keyboard-response","169","404236","0.0-2.0-9.0-1.0-0.0","29","1","2022-04-03 23:26:19","c79472ad15d8b617a4d57d5bf56a810f","128.250.0.197","Mozilla/5.0 (Windows NT 10.0; Win64; x64) AppleWebKit/537.36 (KHTML, like Gecko) Chrome/100.0.4896.60 Safari/537.36","WebKit","Chrome","100.0.4896.60","Windows","10.0","null","null","","","<p style=""font-size:64px;"">+</p>","P_6_1_O",""
"","","","","","html-keyboard-response","170","405487","0.0-2.0-9.0-1.0-1.0","29","1","2022-04-03 23:26:19","c79472ad15d8b617a4d57d5bf56a810f","128.250.0.197","Mozilla/5.0 (Windows NT 10.0; Win64; x64) AppleWebKit/537.36 (KHTML, like Gecko) Chrome/100.0.4896.60 Safari/537.36","WebKit","Chrome","100.0.4896.60","Windows","10.0","null","null","","","
                        <div class=""orange"">
                        <div class=""centered"">
                            <p style=""font-size: 24px""><b>50%</b></p>
                        </div>","P_6_1_O",""
"","","","","","html-slider-response","171","407984","0.0-2.0-9.0-2.0","29","1","2022-04-03 23:26:19","c79472ad15d8b617a4d57d5bf56a810f","128.250.0.197","Mozilla/5.0 (Windows NT 10.0; Win64; x64) AppleWebKit/537.36 (KHTML, like Gecko) Chrome/100.0.4896.60 Safari/537.36","WebKit","Chrome","100.0.4896.60","Windows","10.0","2494.9000000953674","0","","","<div style=""width: 500px; height: 100px;""><p>Place your bid for more information.</p></div>","infoBid","17"
"","","","","","html-keyboard-response","172","408386","0.0-2.0-9.0-3.0-0.0","29","1","2022-04-03 23:26:19","c79472ad15d8b617a4d57d5bf56a810f","128.250.0.197","Mozilla/5.0 (Windows NT 10.0; Win64; x64) AppleWebKit/537.36 (KHTML, like Gecko) Chrome/100.0.4896.60 Safari/537.36","WebKit","Chrome","100.0.4896.60","Windows","10.0","null","null","","","<p style=""font-size:64px;"">+</p>","P_6_1_O",""
"","","","","","html-keyboard-response","173","409638","0.0-2.0-9.0-3.0-1.0","29","1","2022-04-03 23:26:19","c79472ad15d8b617a4d57d5bf56a810f","128.250.0.197","Mozilla/5.0 (Windows NT 10.0; Win64; x64) AppleWebKit/537.36 (KHTML, like Gecko) Chrome/100.0.4896.60 Safari/537.36","WebKit","Chrome","100.0.4896.60","Windows","10.0","null","null","","","<div class=""grey"">
                <div class=""centered"">
                    <p style=""font-size: 24px""><b>???</b></p>
                </div>","P_6_1_O",""
"","","","","","html-keyboard-response","174","410021","0.0-2.0-9.0-4.0-0.0","29","1","2022-04-03 23:26:19","c79472ad15d8b617a4d57d5bf56a810f","128.250.0.197","Mozilla/5.0 (Windows NT 10.0; Win64; x64) AppleWebKit/537.36 (KHTML, like Gecko) Chrome/100.0.4896.60 Safari/537.36","WebKit","Chrome","100.0.4896.60","Windows","10.0","382.2000000476837","j","","","
                      <div class=""row"">

                          <div class=""column"">
                              <div class=""orange""></div>
                              <div class=""leftChoiceText"">
                                  <p style=""font-size: 32px""><b>F</b></p>
                              </div>
                          </div>

                          <div class=""column"">
                              <div class=""pink""></div>
                              <div class=""rightChoiceText"">
                                  <p style=""font-size: 32px""><b>J</b></p>
                              </div>
                          </div>

                      </div>

                      <div class=""centeredTop"">
                          Which colour do you<br>
                          predict will win?
                      </div>","P_6_1_O",""
"","","","","","html-keyboard-response","175","411523","0.0-2.0-9.0-4.0-1.0","29","1","2022-04-03 23:26:19","c79472ad15d8b617a4d57d5bf56a810f","128.250.0.197","Mozilla/5.0 (Windows NT 10.0; Win64; x64) AppleWebKit/537.36 (KHTML, like Gecko) Chrome/100.0.4896.60 Safari/537.36","WebKit","Chrome","100.0.4896.60","Windows","10.0","null","null","","","<p style=""font-size:64px;"">+</p>","P_6_1_O",""
"","","","","","html-keyboard-response","176","411925","0.0-2.0-10.0-0.0-0.0","29","1","2022-04-03 23:26:19","c79472ad15d8b617a4d57d5bf56a810f","128.250.0.197","Mozilla/5.0 (Windows NT 10.0; Win64; x64) AppleWebKit/537.36 (KHTML, like Gecko) Chrome/100.0.4896.60 Safari/537.36","WebKit","Chrome","100.0.4896.60","Windows","10.0","null","null","","","<p style=""font-size:64px;"">+</p>","Z_1_P",""
"","","","","","html-keyboard-response","177","413176","0.0-2.0-10.0-0.0-1.0","29","1","2022-04-03 23:26:19","c79472ad15d8b617a4d57d5bf56a810f","128.250.0.197","Mozilla/5.0 (Windows NT 10.0; Win64; x64) AppleWebKit/537.36 (KHTML, like Gecko) Chrome/100.0.4896.60 Safari/537.36","WebKit","Chrome","100.0.4896.60","Windows","10.0","null","null","","","
                        <div class=orange>
                        <div class=""centered"">
                            <p style=""font-size: 24px""><b>51%</b></p>
                        </div>","Z_1_P",""
"","","","","","html-keyboard-response","178","413579","0.0-2.0-10.0-0.0-0.1","29","1","2022-04-03 23:26:19","c79472ad15d8b617a4d57d5bf56a810f","128.250.0.197","Mozilla/5.0 (Windows NT 10.0; Win64; x64) AppleWebKit/537.36 (KHTML, like Gecko) Chrome/100.0.4896.60 Safari/537.36","WebKit","Chrome","100.0.4896.60","Windows","10.0","null","null","","","<p style=""font-size:64px;"">+</p>","Z_1_P",""
"","","","","","html-keyboard-response","179","414830","0.0-2.0-10.0-0.0-1.1","29","1","2022-04-03 23:26:19","c79472ad15d8b617a4d57d5bf56a810f","128.250.0.197","Mozilla/5.0 (Windows NT 10.0; Win64; x64) AppleWebKit/537.36 (KHTML, like Gecko) Chrome/100.0.4896.60 Safari/537.36","WebKit","Chrome","100.0.4896.60","Windows","10.0","null","null","","","
                        <div class=pink>
                        <div class=""centered"">
                            <p style=""font-size: 24px""><b>52%</b></p>
                        </div>","Z_1_P",""
"","","","","","html-keyboard-response","180","415233","0.0-2.0-10.0-0.0-0.2","29","1","2022-04-03 23:26:19","c79472ad15d8b617a4d57d5bf56a810f","128.250.0.197","Mozilla/5.0 (Windows NT 10.0; Win64; x64) AppleWebKit/537.36 (KHTML, like Gecko) Chrome/100.0.4896.60 Safari/537.36","WebKit","Chrome","100.0.4896.60","Windows","10.0","null","null","","","<p style=""font-size:64px;"">+</p>","Z_1_P",""
"","","","","","html-keyboard-response","181","416485","0.0-2.0-10.0-0.0-1.2","29","1","2022-04-03 23:26:19","c79472ad15d8b617a4d57d5bf56a810f","128.250.0.197","Mozilla/5.0 (Windows NT 10.0; Win64; x64) AppleWebKit/537.36 (KHTML, like Gecko) Chrome/100.0.4896.60 Safari/537.36","WebKit","Chrome","100.0.4896.60","Windows","10.0","null","null","","","
                        <div class=orange>
                        <div class=""centered"">
                            <p style=""font-size: 24px""><b>52%</b></p>
                        </div>","Z_1_P",""
"","","","","","html-keyboard-response","182","416887","0.0-2.0-10.0-0.0-0.3","29","1","2022-04-03 23:26:19","c79472ad15d8b617a4d57d5bf56a810f","128.250.0.197","Mozilla/5.0 (Windows NT 10.0; Win64; x64) AppleWebKit/537.36 (KHTML, like Gecko) Chrome/100.0.4896.60 Safari/537.36","WebKit","Chrome","100.0.4896.60","Windows","10.0","null","null","","","<p style=""font-size:64px;"">+</p>","Z_1_P",""
"","","","","","html-keyboard-response","183","418137","0.0-2.0-10.0-0.0-1.3","29","1","2022-04-03 23:26:19","c79472ad15d8b617a4d57d5bf56a810f","128.250.0.197","Mozilla/5.0 (Windows NT 10.0; Win64; x64) AppleWebKit/537.36 (KHTML, like Gecko) Chrome/100.0.4896.60 Safari/537.36","WebKit","Chrome","100.0.4896.60","Windows","10.0","null","null","","","
                        <div class=pink>
                        <div class=""centered"">
                            <p style=""font-size: 24px""><b>51%</b></p>
                        </div>","Z_1_P",""
"","","","","","html-keyboard-response","184","418539","0.0-2.0-10.0-0.0-0.4","29","1","2022-04-03 23:26:19","c79472ad15d8b617a4d57d5bf56a810f","128.250.0.197","Mozilla/5.0 (Windows NT 10.0; Win64; x64) AppleWebKit/537.36 (KHTML, like Gecko) Chrome/100.0.4896.60 Safari/537.36","WebKit","Chrome","100.0.4896.60","Windows","10.0","null","null","","","<p style=""font-size:64px;"">+</p>","Z_1_P",""
"","","","","","html-keyboard-response","185","419791","0.0-2.0-10.0-0.0-1.4","29","1","2022-04-03 23:26:19","c79472ad15d8b617a4d57d5bf56a810f","128.250.0.197","Mozilla/5.0 (Windows NT 10.0; Win64; x64) AppleWebKit/537.36 (KHTML, like Gecko) Chrome/100.0.4896.60 Safari/537.36","WebKit","Chrome","100.0.4896.60","Windows","10.0","null","null","","","
                        <div class=pink>
                        <div class=""centered"">
                            <p style=""font-size: 24px""><b>51%</b></p>
                        </div>","Z_1_P",""
"","","","","","html-keyboard-response","186","420194","0.0-2.0-10.0-0.0-0.5","29","1","2022-04-03 23:26:19","c79472ad15d8b617a4d57d5bf56a810f","128.250.0.197","Mozilla/5.0 (Windows NT 10.0; Win64; x64) AppleWebKit/537.36 (KHTML, like Gecko) Chrome/100.0.4896.60 Safari/537.36","WebKit","Chrome","100.0.4896.60","Windows","10.0","null","null","","","<p style=""font-size:64px;"">+</p>","Z_1_P",""
"","","","","","html-keyboard-response","187","421446","0.0-2.0-10.0-0.0-1.5","29","1","2022-04-03 23:26:19","c79472ad15d8b617a4d57d5bf56a810f","128.250.0.197","Mozilla/5.0 (Windows NT 10.0; Win64; x64) AppleWebKit/537.36 (KHTML, like Gecko) Chrome/100.0.4896.60 Safari/537.36","WebKit","Chrome","100.0.4896.60","Windows","10.0","null","null","","","
                        <div class=orange>
                        <div class=""centered"">
                            <p style=""font-size: 24px""><b>51%</b></p>
                        </div>","Z_1_P",""
"","","","","","html-keyboard-response","188","421848","0.0-2.0-10.0-1.0-0.0","29","1","2022-04-03 23:26:19","c79472ad15d8b617a4d57d5bf56a810f","128.250.0.197","Mozilla/5.0 (Windows NT 10.0; Win64; x64) AppleWebKit/537.36 (KHTML, like Gecko) Chrome/100.0.4896.60 Safari/537.36","WebKit","Chrome","100.0.4896.60","Windows","10.0","null","null","","","<p style=""font-size:64px;"">+</p>","Z_1_P",""
"","","","","","html-keyboard-response","189","423100","0.0-2.0-10.0-1.0-1.0","29","1","2022-04-03 23:26:19","c79472ad15d8b617a4d57d5bf56a810f","128.250.0.197","Mozilla/5.0 (Windows NT 10.0; Win64; x64) AppleWebKit/537.36 (KHTML, like Gecko) Chrome/100.0.4896.60 Safari/537.36","WebKit","Chrome","100.0.4896.60","Windows","10.0","null","null","","","
                        <div class=""pink"">
                        <div class=""centered"">
                            <p style=""font-size: 24px""><b>50%</b></p>
                        </div>","Z_1_P",""
"","","","","","html-slider-response","190","425444","0.0-2.0-10.0-2.0","29","1","2022-04-03 23:26:19","c79472ad15d8b617a4d57d5bf56a810f","128.250.0.197","Mozilla/5.0 (Windows NT 10.0; Win64; x64) AppleWebKit/537.36 (KHTML, like Gecko) Chrome/100.0.4896.60 Safari/537.36","WebKit","Chrome","100.0.4896.60","Windows","10.0","2343.399999856949","41","","","<div style=""width: 500px; height: 100px;""><p>Place your bid for more information.</p></div>","infoBid","12"
"","","","","","html-keyboard-response","191","425847","0.0-2.0-10.0-3.0-0.0","29","1","2022-04-03 23:26:19","c79472ad15d8b617a4d57d5bf56a810f","128.250.0.197","Mozilla/5.0 (Windows NT 10.0; Win64; x64) AppleWebKit/537.36 (KHTML, like Gecko) Chrome/100.0.4896.60 Safari/537.36","WebKit","Chrome","100.0.4896.60","Windows","10.0","null","null","","","<p style=""font-size:64px;"">+</p>","Z_1_P",""
"","","","","","html-keyboard-response","192","427099","0.0-2.0-10.0-3.0-1.0","29","1","2022-04-03 23:26:19","c79472ad15d8b617a4d57d5bf56a810f","128.250.0.197","Mozilla/5.0 (Windows NT 10.0; Win64; x64) AppleWebKit/537.36 (KHTML, like Gecko) Chrome/100.0.4896.60 Safari/537.36","WebKit","Chrome","100.0.4896.60","Windows","10.0","null","null","","","<div class=pink>
                <div class=""centered"">
                    <p style=""font-size: 24px""><b>53%</b></p>
                </div>","Z_1_P",""
"","","","","","html-keyboard-response","193","428062","0.0-2.0-10.0-4.0-0.0","29","1","2022-04-03 23:26:19","c79472ad15d8b617a4d57d5bf56a810f","128.250.0.197","Mozilla/5.0 (Windows NT 10.0; Win64; x64) AppleWebKit/537.36 (KHTML, like Gecko) Chrome/100.0.4896.60 Safari/537.36","WebKit","Chrome","100.0.4896.60","Windows","10.0","962.0999999046326","j","","","
                      <div class=""row"">

                          <div class=""column"">
                              <div class=""orange""></div>
                              <div class=""leftChoiceText"">
                                  <p style=""font-size: 32px""><b>F</b></p>
                              </div>
                          </div>

                          <div class=""column"">
                              <div class=""pink""></div>
                              <div class=""rightChoiceText"">
                                  <p style=""font-size: 32px""><b>J</b></p>
                              </div>
                          </div>

                      </div>

                      <div class=""centeredTop"">
                          Which colour do you<br>
                          predict will win?
                      </div>","Z_1_P",""
