"success","timeout","failed_images","failed_audio","failed_video","trial_type","trial_index","time_elapsed","internal_node_id","run_id","condition","recorded_at","source_code_version","ip","user_agent","device","browser","browser_version","platform","platform_version","PROLIFIC_PID","STUDY_ID","SESSION_ID","rt","response","question_order","view_history","stimulus","trial_name","slider_start"
"true","false","[]","[]","[]","preload","0","387","0.0-0.0","49","1","2022-04-21 03:31:21","07fc0bccf7d27b14a45717ad72d6b95a","109.242.61.136","Mozilla/5.0 (Windows NT 10.0; Win64; x64) AppleWebKit/537.36 (KHTML, like Gecko) Chrome/100.0.4896.127 Safari/537.36","WebKit","Chrome","100.0.4896.127","Windows","10.0","60ca1c436511b9fc8ab35615","62562cd9fd8151f6abdbe5c0","6260cfbc4e6f8056f16da511","","","","","","",""
"","","","","","survey-multi-choice","1","4622","0.0-1.0-0.0","49","1","2022-04-21 03:31:21","07fc0bccf7d27b14a45717ad72d6b95a","109.242.61.136","Mozilla/5.0 (Windows NT 10.0; Win64; x64) AppleWebKit/537.36 (KHTML, like Gecko) Chrome/100.0.4896.127 Safari/537.36","WebKit","Chrome","100.0.4896.127","Windows","10.0","60ca1c436511b9fc8ab35615","62562cd9fd8151f6abdbe5c0","6260cfbc4e6f8056f16da511","4233.199999988079","{""Gender"":""Male""}","[0]","","","",""
"","","","","","survey-text","2","7134","0.0-1.0-1.0","49","1","2022-04-21 03:31:21","07fc0bccf7d27b14a45717ad72d6b95a","109.242.61.136","Mozilla/5.0 (Windows NT 10.0; Win64; x64) AppleWebKit/537.36 (KHTML, like Gecko) Chrome/100.0.4896.127 Safari/537.36","WebKit","Chrome","100.0.4896.127","Windows","10.0","60ca1c436511b9fc8ab35615","62562cd9fd8151f6abdbe5c0","6260cfbc4e6f8056f16da511","2506.800000011921","{""Age"":""24""}","","","","",""
"","","","","","instructions","3","164375","0.0-1.0-2.0","49","1","2022-04-21 03:31:21","07fc0bccf7d27b14a45717ad72d6b95a","109.242.61.136","Mozilla/5.0 (Windows NT 10.0; Win64; x64) AppleWebKit/537.36 (KHTML, like Gecko) Chrome/100.0.4896.127 Safari/537.36","WebKit","Chrome","100.0.4896.127","Windows","10.0","60ca1c436511b9fc8ab35615","62562cd9fd8151f6abdbe5c0","6260cfbc4e6f8056f16da511","157238.60000002384","","","[{""page_index"":0,""viewing_time"":4815.100000023842},{""page_index"":1,""viewing_time"":18855.100000023842},{""page_index"":2,""viewing_time"":26544.299999952316},{""page_index"":3,""viewing_time"":7103.800000011921},{""page_index"":4,""viewing_time"":9031.900000035763},{""page_index"":5,""viewing_time"":11512.199999988079},{""page_index"":6,""viewing_time"":15272.099999964237},{""page_index"":7,""viewing_time"":18376.400000035763},{""page_index"":8,""viewing_time"":16895.5},{""page_index"":9,""viewing_time"":4808},{""page_index"":10,""viewing_time"":2400.099999964237},{""page_index"":11,""viewing_time"":11351.900000035763},{""page_index"":12,""viewing_time"":8223.899999976158},{""page_index"":13,""viewing_time"":2047.699999988079}]","","",""
"","","","","","html-keyboard-response","4","164780","0.0-2.0-0.0-0.0-0.0","49","1","2022-04-21 03:31:21","07fc0bccf7d27b14a45717ad72d6b95a","109.242.61.136","Mozilla/5.0 (Windows NT 10.0; Win64; x64) AppleWebKit/537.36 (KHTML, like Gecko) Chrome/100.0.4896.127 Safari/537.36","WebKit","Chrome","100.0.4896.127","Windows","10.0","60ca1c436511b9fc8ab35615","62562cd9fd8151f6abdbe5c0","6260cfbc4e6f8056f16da511","null","null","","","<p style=""font-size:64px;"">+</p>","O_4_2_P",""
"","","","","","html-keyboard-response","5","166032","0.0-2.0-0.0-0.0-1.0","49","1","2022-04-21 03:31:21","07fc0bccf7d27b14a45717ad72d6b95a","109.242.61.136","Mozilla/5.0 (Windows NT 10.0; Win64; x64) AppleWebKit/537.36 (KHTML, like Gecko) Chrome/100.0.4896.127 Safari/537.36","WebKit","Chrome","100.0.4896.127","Windows","10.0","60ca1c436511b9fc8ab35615","62562cd9fd8151f6abdbe5c0","6260cfbc4e6f8056f16da511","null","null","","","
                        <div class=orange>
                        <div class=""centered"">
                            <p style=""font-size: 24px""><b>51%</b></p>
                        </div>","O_4_2_P",""
"","","","","","html-keyboard-response","6","166434","0.0-2.0-0.0-0.0-0.1","49","1","2022-04-21 03:31:21","07fc0bccf7d27b14a45717ad72d6b95a","109.242.61.136","Mozilla/5.0 (Windows NT 10.0; Win64; x64) AppleWebKit/537.36 (KHTML, like Gecko) Chrome/100.0.4896.127 Safari/537.36","WebKit","Chrome","100.0.4896.127","Windows","10.0","60ca1c436511b9fc8ab35615","62562cd9fd8151f6abdbe5c0","6260cfbc4e6f8056f16da511","null","null","","","<p style=""font-size:64px;"">+</p>","O_4_2_P",""
"","","","","","html-keyboard-response","7","167687","0.0-2.0-0.0-0.0-1.1","49","1","2022-04-21 03:31:21","07fc0bccf7d27b14a45717ad72d6b95a","109.242.61.136","Mozilla/5.0 (Windows NT 10.0; Win64; x64) AppleWebKit/537.36 (KHTML, like Gecko) Chrome/100.0.4896.127 Safari/537.36","WebKit","Chrome","100.0.4896.127","Windows","10.0","60ca1c436511b9fc8ab35615","62562cd9fd8151f6abdbe5c0","6260cfbc4e6f8056f16da511","null","null","","","
                        <div class=pink>
                        <div class=""centered"">
                            <p style=""font-size: 24px""><b>51%</b></p>
                        </div>","O_4_2_P",""
"","","","","","html-keyboard-response","8","168090","0.0-2.0-0.0-0.0-0.2","49","1","2022-04-21 03:31:21","07fc0bccf7d27b14a45717ad72d6b95a","109.242.61.136","Mozilla/5.0 (Windows NT 10.0; Win64; x64) AppleWebKit/537.36 (KHTML, like Gecko) Chrome/100.0.4896.127 Safari/537.36","WebKit","Chrome","100.0.4896.127","Windows","10.0","60ca1c436511b9fc8ab35615","62562cd9fd8151f6abdbe5c0","6260cfbc4e6f8056f16da511","null","null","","","<p style=""font-size:64px;"">+</p>","O_4_2_P",""
"","","","","","html-keyboard-response","9","169341","0.0-2.0-0.0-0.0-1.2","49","1","2022-04-21 03:31:21","07fc0bccf7d27b14a45717ad72d6b95a","109.242.61.136","Mozilla/5.0 (Windows NT 10.0; Win64; x64) AppleWebKit/537.36 (KHTML, like Gecko) Chrome/100.0.4896.127 Safari/537.36","WebKit","Chrome","100.0.4896.127","Windows","10.0","60ca1c436511b9fc8ab35615","62562cd9fd8151f6abdbe5c0","6260cfbc4e6f8056f16da511","null","null","","","
                        <div class=pink>
                        <div class=""centered"">
                            <p style=""font-size: 24px""><b>52%</b></p>
                        </div>","O_4_2_P",""
"","","","","","html-keyboard-response","10","169743","0.0-2.0-0.0-0.0-0.3","49","1","2022-04-21 03:31:21","07fc0bccf7d27b14a45717ad72d6b95a","109.242.61.136","Mozilla/5.0 (Windows NT 10.0; Win64; x64) AppleWebKit/537.36 (KHTML, like Gecko) Chrome/100.0.4896.127 Safari/537.36","WebKit","Chrome","100.0.4896.127","Windows","10.0","60ca1c436511b9fc8ab35615","62562cd9fd8151f6abdbe5c0","6260cfbc4e6f8056f16da511","null","null","","","<p style=""font-size:64px;"">+</p>","O_4_2_P",""
"","","","","","html-keyboard-response","11","170995","0.0-2.0-0.0-0.0-1.3","49","1","2022-04-21 03:31:21","07fc0bccf7d27b14a45717ad72d6b95a","109.242.61.136","Mozilla/5.0 (Windows NT 10.0; Win64; x64) AppleWebKit/537.36 (KHTML, like Gecko) Chrome/100.0.4896.127 Safari/537.36","WebKit","Chrome","100.0.4896.127","Windows","10.0","60ca1c436511b9fc8ab35615","62562cd9fd8151f6abdbe5c0","6260cfbc4e6f8056f16da511","null","null","","","
                        <div class=orange>
                        <div class=""centered"">
                            <p style=""font-size: 24px""><b>54%</b></p>
                        </div>","O_4_2_P",""
"","","","","","html-keyboard-response","12","171397","0.0-2.0-0.0-0.0-0.4","49","1","2022-04-21 03:31:21","07fc0bccf7d27b14a45717ad72d6b95a","109.242.61.136","Mozilla/5.0 (Windows NT 10.0; Win64; x64) AppleWebKit/537.36 (KHTML, like Gecko) Chrome/100.0.4896.127 Safari/537.36","WebKit","Chrome","100.0.4896.127","Windows","10.0","60ca1c436511b9fc8ab35615","62562cd9fd8151f6abdbe5c0","6260cfbc4e6f8056f16da511","null","null","","","<p style=""font-size:64px;"">+</p>","O_4_2_P",""
"","","","","","html-keyboard-response","13","172648","0.0-2.0-0.0-0.0-1.4","49","1","2022-04-21 03:31:21","07fc0bccf7d27b14a45717ad72d6b95a","109.242.61.136","Mozilla/5.0 (Windows NT 10.0; Win64; x64) AppleWebKit/537.36 (KHTML, like Gecko) Chrome/100.0.4896.127 Safari/537.36","WebKit","Chrome","100.0.4896.127","Windows","10.0","60ca1c436511b9fc8ab35615","62562cd9fd8151f6abdbe5c0","6260cfbc4e6f8056f16da511","null","null","","","
                        <div class=pink>
                        <div class=""centered"">
                            <p style=""font-size: 24px""><b>52%</b></p>
                        </div>","O_4_2_P",""
"","","","","","html-keyboard-response","14","173050","0.0-2.0-0.0-0.0-0.5","49","1","2022-04-21 03:31:21","07fc0bccf7d27b14a45717ad72d6b95a","109.242.61.136","Mozilla/5.0 (Windows NT 10.0; Win64; x64) AppleWebKit/537.36 (KHTML, like Gecko) Chrome/100.0.4896.127 Safari/537.36","WebKit","Chrome","100.0.4896.127","Windows","10.0","60ca1c436511b9fc8ab35615","62562cd9fd8151f6abdbe5c0","6260cfbc4e6f8056f16da511","null","null","","","<p style=""font-size:64px;"">+</p>","O_4_2_P",""
"","","","","","html-keyboard-response","15","174302","0.0-2.0-0.0-0.0-1.5","49","1","2022-04-21 03:31:21","07fc0bccf7d27b14a45717ad72d6b95a","109.242.61.136","Mozilla/5.0 (Windows NT 10.0; Win64; x64) AppleWebKit/537.36 (KHTML, like Gecko) Chrome/100.0.4896.127 Safari/537.36","WebKit","Chrome","100.0.4896.127","Windows","10.0","60ca1c436511b9fc8ab35615","62562cd9fd8151f6abdbe5c0","6260cfbc4e6f8056f16da511","null","null","","","
                        <div class=orange>
                        <div class=""centered"">
                            <p style=""font-size: 24px""><b>54%</b></p>
                        </div>","O_4_2_P",""
"","","","","","html-keyboard-response","16","174704","0.0-2.0-0.0-1.0-0.0","49","1","2022-04-21 03:31:21","07fc0bccf7d27b14a45717ad72d6b95a","109.242.61.136","Mozilla/5.0 (Windows NT 10.0; Win64; x64) AppleWebKit/537.36 (KHTML, like Gecko) Chrome/100.0.4896.127 Safari/537.36","WebKit","Chrome","100.0.4896.127","Windows","10.0","60ca1c436511b9fc8ab35615","62562cd9fd8151f6abdbe5c0","6260cfbc4e6f8056f16da511","null","null","","","<p style=""font-size:64px;"">+</p>","O_4_2_P",""
"","","","","","html-keyboard-response","17","175955","0.0-2.0-0.0-1.0-1.0","49","1","2022-04-21 03:31:21","07fc0bccf7d27b14a45717ad72d6b95a","109.242.61.136","Mozilla/5.0 (Windows NT 10.0; Win64; x64) AppleWebKit/537.36 (KHTML, like Gecko) Chrome/100.0.4896.127 Safari/537.36","WebKit","Chrome","100.0.4896.127","Windows","10.0","60ca1c436511b9fc8ab35615","62562cd9fd8151f6abdbe5c0","6260cfbc4e6f8056f16da511","null","null","","","
                        <div class=""pink"">
                        <div class=""centered"">
                            <p style=""font-size: 24px""><b>50%</b></p>
                        </div>","O_4_2_P",""
"","","","","","html-slider-response","18","183559","0.0-2.0-0.0-2.0","49","1","2022-04-21 03:31:21","07fc0bccf7d27b14a45717ad72d6b95a","109.242.61.136","Mozilla/5.0 (Windows NT 10.0; Win64; x64) AppleWebKit/537.36 (KHTML, like Gecko) Chrome/100.0.4896.127 Safari/537.36","WebKit","Chrome","100.0.4896.127","Windows","10.0","60ca1c436511b9fc8ab35615","62562cd9fd8151f6abdbe5c0","6260cfbc4e6f8056f16da511","7598","3","","","<div style=""width: 500px; height: 100px;""><p>Place your bid for more information.</p></div>","infoBid","0"
"","","","","","html-keyboard-response","19","183961","0.0-2.0-0.0-3.0-0.0","49","1","2022-04-21 03:31:21","07fc0bccf7d27b14a45717ad72d6b95a","109.242.61.136","Mozilla/5.0 (Windows NT 10.0; Win64; x64) AppleWebKit/537.36 (KHTML, like Gecko) Chrome/100.0.4896.127 Safari/537.36","WebKit","Chrome","100.0.4896.127","Windows","10.0","60ca1c436511b9fc8ab35615","62562cd9fd8151f6abdbe5c0","6260cfbc4e6f8056f16da511","null","null","","","<p style=""font-size:64px;"">+</p>","O_4_2_P",""
"","","","","","html-keyboard-response","20","185224","0.0-2.0-0.0-3.0-1.0","49","1","2022-04-21 03:31:21","07fc0bccf7d27b14a45717ad72d6b95a","109.242.61.136","Mozilla/5.0 (Windows NT 10.0; Win64; x64) AppleWebKit/537.36 (KHTML, like Gecko) Chrome/100.0.4896.127 Safari/537.36","WebKit","Chrome","100.0.4896.127","Windows","10.0","60ca1c436511b9fc8ab35615","62562cd9fd8151f6abdbe5c0","6260cfbc4e6f8056f16da511","null","null","","","<div class=""grey"">
                <div class=""centered"">
                    <p style=""font-size: 24px""><b>???</b></p>
                </div>","O_4_2_P",""
"","","","","","html-keyboard-response","21","187881","0.0-2.0-0.0-4.0-0.0","49","1","2022-04-21 03:31:21","07fc0bccf7d27b14a45717ad72d6b95a","109.242.61.136","Mozilla/5.0 (Windows NT 10.0; Win64; x64) AppleWebKit/537.36 (KHTML, like Gecko) Chrome/100.0.4896.127 Safari/537.36","WebKit","Chrome","100.0.4896.127","Windows","10.0","60ca1c436511b9fc8ab35615","62562cd9fd8151f6abdbe5c0","6260cfbc4e6f8056f16da511","2653.899999976158","f","","","
                      <div class=""row"">

                          <div class=""column"">
                              <div class=""orange""></div>
                              <div class=""leftChoiceText"">
                                  <p style=""font-size: 32px""><b>F</b></p>
                              </div>
                          </div>

                          <div class=""column"">
                              <div class=""pink""></div>
                              <div class=""rightChoiceText"">
                                  <p style=""font-size: 32px""><b>J</b></p>
                              </div>
                          </div>

                      </div>

                      <div class=""centeredTop"">
                          Which colour do you<br>
                          predict will win?
                      </div>","O_4_2_P",""
"","","","","","html-keyboard-response","22","189383","0.0-2.0-0.0-4.0-1.0","49","1","2022-04-21 03:31:21","07fc0bccf7d27b14a45717ad72d6b95a","109.242.61.136","Mozilla/5.0 (Windows NT 10.0; Win64; x64) AppleWebKit/537.36 (KHTML, like Gecko) Chrome/100.0.4896.127 Safari/537.36","WebKit","Chrome","100.0.4896.127","Windows","10.0","60ca1c436511b9fc8ab35615","62562cd9fd8151f6abdbe5c0","6260cfbc4e6f8056f16da511","null","null","","","<p style=""font-size:64px;"">+</p>","O_4_2_P",""
"","","","","","html-keyboard-response","23","189785","0.0-2.0-1.0-0.0-0.0","49","1","2022-04-21 03:31:21","07fc0bccf7d27b14a45717ad72d6b95a","109.242.61.136","Mozilla/5.0 (Windows NT 10.0; Win64; x64) AppleWebKit/537.36 (KHTML, like Gecko) Chrome/100.0.4896.127 Safari/537.36","WebKit","Chrome","100.0.4896.127","Windows","10.0","60ca1c436511b9fc8ab35615","62562cd9fd8151f6abdbe5c0","6260cfbc4e6f8056f16da511","null","null","","","<p style=""font-size:64px;"">+</p>","Z_1_P",""
"","","","","","html-keyboard-response","24","191038","0.0-2.0-1.0-0.0-1.0","49","1","2022-04-21 03:31:21","07fc0bccf7d27b14a45717ad72d6b95a","109.242.61.136","Mozilla/5.0 (Windows NT 10.0; Win64; x64) AppleWebKit/537.36 (KHTML, like Gecko) Chrome/100.0.4896.127 Safari/537.36","WebKit","Chrome","100.0.4896.127","Windows","10.0","60ca1c436511b9fc8ab35615","62562cd9fd8151f6abdbe5c0","6260cfbc4e6f8056f16da511","null","null","","","
                        <div class=orange>
                        <div class=""centered"">
                            <p style=""font-size: 24px""><b>51%</b></p>
                        </div>","Z_1_P",""
"","","","","","html-keyboard-response","25","191452","0.0-2.0-1.0-0.0-0.1","49","1","2022-04-21 03:31:21","07fc0bccf7d27b14a45717ad72d6b95a","109.242.61.136","Mozilla/5.0 (Windows NT 10.0; Win64; x64) AppleWebKit/537.36 (KHTML, like Gecko) Chrome/100.0.4896.127 Safari/537.36","WebKit","Chrome","100.0.4896.127","Windows","10.0","60ca1c436511b9fc8ab35615","62562cd9fd8151f6abdbe5c0","6260cfbc4e6f8056f16da511","null","null","","","<p style=""font-size:64px;"">+</p>","Z_1_P",""
"","","","","","html-keyboard-response","26","192704","0.0-2.0-1.0-0.0-1.1","49","1","2022-04-21 03:31:21","07fc0bccf7d27b14a45717ad72d6b95a","109.242.61.136","Mozilla/5.0 (Windows NT 10.0; Win64; x64) AppleWebKit/537.36 (KHTML, like Gecko) Chrome/100.0.4896.127 Safari/537.36","WebKit","Chrome","100.0.4896.127","Windows","10.0","60ca1c436511b9fc8ab35615","62562cd9fd8151f6abdbe5c0","6260cfbc4e6f8056f16da511","null","null","","","
                        <div class=pink>
                        <div class=""centered"">
                            <p style=""font-size: 24px""><b>52%</b></p>
                        </div>","Z_1_P",""
"","","","","","html-keyboard-response","27","193106","0.0-2.0-1.0-0.0-0.2","49","1","2022-04-21 03:31:21","07fc0bccf7d27b14a45717ad72d6b95a","109.242.61.136","Mozilla/5.0 (Windows NT 10.0; Win64; x64) AppleWebKit/537.36 (KHTML, like Gecko) Chrome/100.0.4896.127 Safari/537.36","WebKit","Chrome","100.0.4896.127","Windows","10.0","60ca1c436511b9fc8ab35615","62562cd9fd8151f6abdbe5c0","6260cfbc4e6f8056f16da511","null","null","","","<p style=""font-size:64px;"">+</p>","Z_1_P",""
"","","","","","html-keyboard-response","28","194358","0.0-2.0-1.0-0.0-1.2","49","1","2022-04-21 03:31:21","07fc0bccf7d27b14a45717ad72d6b95a","109.242.61.136","Mozilla/5.0 (Windows NT 10.0; Win64; x64) AppleWebKit/537.36 (KHTML, like Gecko) Chrome/100.0.4896.127 Safari/537.36","WebKit","Chrome","100.0.4896.127","Windows","10.0","60ca1c436511b9fc8ab35615","62562cd9fd8151f6abdbe5c0","6260cfbc4e6f8056f16da511","null","null","","","
                        <div class=pink>
                        <div class=""centered"">
                            <p style=""font-size: 24px""><b>51%</b></p>
                        </div>","Z_1_P",""
"","","","","","html-keyboard-response","29","194761","0.0-2.0-1.0-0.0-0.3","49","1","2022-04-21 03:31:21","07fc0bccf7d27b14a45717ad72d6b95a","109.242.61.136","Mozilla/5.0 (Windows NT 10.0; Win64; x64) AppleWebKit/537.36 (KHTML, like Gecko) Chrome/100.0.4896.127 Safari/537.36","WebKit","Chrome","100.0.4896.127","Windows","10.0","60ca1c436511b9fc8ab35615","62562cd9fd8151f6abdbe5c0","6260cfbc4e6f8056f16da511","null","null","","","<p style=""font-size:64px;"">+</p>","Z_1_P",""
"","","","","","html-keyboard-response","30","196013","0.0-2.0-1.0-0.0-1.3","49","1","2022-04-21 03:31:21","07fc0bccf7d27b14a45717ad72d6b95a","109.242.61.136","Mozilla/5.0 (Windows NT 10.0; Win64; x64) AppleWebKit/537.36 (KHTML, like Gecko) Chrome/100.0.4896.127 Safari/537.36","WebKit","Chrome","100.0.4896.127","Windows","10.0","60ca1c436511b9fc8ab35615","62562cd9fd8151f6abdbe5c0","6260cfbc4e6f8056f16da511","null","null","","","
                        <div class=orange>
                        <div class=""centered"">
                            <p style=""font-size: 24px""><b>51%</b></p>
                        </div>","Z_1_P",""
"","","","","","html-keyboard-response","31","196416","0.0-2.0-1.0-0.0-0.4","49","1","2022-04-21 03:31:21","07fc0bccf7d27b14a45717ad72d6b95a","109.242.61.136","Mozilla/5.0 (Windows NT 10.0; Win64; x64) AppleWebKit/537.36 (KHTML, like Gecko) Chrome/100.0.4896.127 Safari/537.36","WebKit","Chrome","100.0.4896.127","Windows","10.0","60ca1c436511b9fc8ab35615","62562cd9fd8151f6abdbe5c0","6260cfbc4e6f8056f16da511","null","null","","","<p style=""font-size:64px;"">+</p>","Z_1_P",""
"","","","","","html-keyboard-response","32","197669","0.0-2.0-1.0-0.0-1.4","49","1","2022-04-21 03:31:21","07fc0bccf7d27b14a45717ad72d6b95a","109.242.61.136","Mozilla/5.0 (Windows NT 10.0; Win64; x64) AppleWebKit/537.36 (KHTML, like Gecko) Chrome/100.0.4896.127 Safari/537.36","WebKit","Chrome","100.0.4896.127","Windows","10.0","60ca1c436511b9fc8ab35615","62562cd9fd8151f6abdbe5c0","6260cfbc4e6f8056f16da511","null","null","","","
                        <div class=orange>
                        <div class=""centered"">
                            <p style=""font-size: 24px""><b>52%</b></p>
                        </div>","Z_1_P",""
"","","","","","html-keyboard-response","33","198087","0.0-2.0-1.0-0.0-0.5","49","1","2022-04-21 03:31:21","07fc0bccf7d27b14a45717ad72d6b95a","109.242.61.136","Mozilla/5.0 (Windows NT 10.0; Win64; x64) AppleWebKit/537.36 (KHTML, like Gecko) Chrome/100.0.4896.127 Safari/537.36","WebKit","Chrome","100.0.4896.127","Windows","10.0","60ca1c436511b9fc8ab35615","62562cd9fd8151f6abdbe5c0","6260cfbc4e6f8056f16da511","null","null","","","<p style=""font-size:64px;"">+</p>","Z_1_P",""
"","","","","","html-keyboard-response","34","199338","0.0-2.0-1.0-0.0-1.5","49","1","2022-04-21 03:31:21","07fc0bccf7d27b14a45717ad72d6b95a","109.242.61.136","Mozilla/5.0 (Windows NT 10.0; Win64; x64) AppleWebKit/537.36 (KHTML, like Gecko) Chrome/100.0.4896.127 Safari/537.36","WebKit","Chrome","100.0.4896.127","Windows","10.0","60ca1c436511b9fc8ab35615","62562cd9fd8151f6abdbe5c0","6260cfbc4e6f8056f16da511","null","null","","","
                        <div class=pink>
                        <div class=""centered"">
                            <p style=""font-size: 24px""><b>51%</b></p>
                        </div>","Z_1_P",""
"","","","","","html-keyboard-response","35","199741","0.0-2.0-1.0-1.0-0.0","49","1","2022-04-21 03:31:21","07fc0bccf7d27b14a45717ad72d6b95a","109.242.61.136","Mozilla/5.0 (Windows NT 10.0; Win64; x64) AppleWebKit/537.36 (KHTML, like Gecko) Chrome/100.0.4896.127 Safari/537.36","WebKit","Chrome","100.0.4896.127","Windows","10.0","60ca1c436511b9fc8ab35615","62562cd9fd8151f6abdbe5c0","6260cfbc4e6f8056f16da511","null","null","","","<p style=""font-size:64px;"">+</p>","Z_1_P",""
"","","","","","html-keyboard-response","36","200994","0.0-2.0-1.0-1.0-1.0","49","1","2022-04-21 03:31:21","07fc0bccf7d27b14a45717ad72d6b95a","109.242.61.136","Mozilla/5.0 (Windows NT 10.0; Win64; x64) AppleWebKit/537.36 (KHTML, like Gecko) Chrome/100.0.4896.127 Safari/537.36","WebKit","Chrome","100.0.4896.127","Windows","10.0","60ca1c436511b9fc8ab35615","62562cd9fd8151f6abdbe5c0","6260cfbc4e6f8056f16da511","null","null","","","
                        <div class=""pink"">
                        <div class=""centered"">
                            <p style=""font-size: 24px""><b>50%</b></p>
                        </div>","Z_1_P",""
"","","","","","html-slider-response","37","203479","0.0-2.0-1.0-2.0","49","1","2022-04-21 03:31:21","07fc0bccf7d27b14a45717ad72d6b95a","109.242.61.136","Mozilla/5.0 (Windows NT 10.0; Win64; x64) AppleWebKit/537.36 (KHTML, like Gecko) Chrome/100.0.4896.127 Safari/537.36","WebKit","Chrome","100.0.4896.127","Windows","10.0","60ca1c436511b9fc8ab35615","62562cd9fd8151f6abdbe5c0","6260cfbc4e6f8056f16da511","2483","4","","","<div style=""width: 500px; height: 100px;""><p>Place your bid for more information.</p></div>","infoBid","0"
"","","","","","html-keyboard-response","38","203881","0.0-2.0-1.0-3.0-0.0","49","1","2022-04-21 03:31:21","07fc0bccf7d27b14a45717ad72d6b95a","109.242.61.136","Mozilla/5.0 (Windows NT 10.0; Win64; x64) AppleWebKit/537.36 (KHTML, like Gecko) Chrome/100.0.4896.127 Safari/537.36","WebKit","Chrome","100.0.4896.127","Windows","10.0","60ca1c436511b9fc8ab35615","62562cd9fd8151f6abdbe5c0","6260cfbc4e6f8056f16da511","null","null","","","<p style=""font-size:64px;"">+</p>","Z_1_P",""
"","","","","","html-keyboard-response","39","205135","0.0-2.0-1.0-3.0-1.0","49","1","2022-04-21 03:31:21","07fc0bccf7d27b14a45717ad72d6b95a","109.242.61.136","Mozilla/5.0 (Windows NT 10.0; Win64; x64) AppleWebKit/537.36 (KHTML, like Gecko) Chrome/100.0.4896.127 Safari/537.36","WebKit","Chrome","100.0.4896.127","Windows","10.0","60ca1c436511b9fc8ab35615","62562cd9fd8151f6abdbe5c0","6260cfbc4e6f8056f16da511","null","null","","","<div class=orange>
                <div class=""centered"">
                    <p style=""font-size: 24px""><b>52%</b></p>
                </div>","Z_1_P",""
"","","","","","html-keyboard-response","40","206080","0.0-2.0-1.0-4.0-0.0","49","1","2022-04-21 03:31:21","07fc0bccf7d27b14a45717ad72d6b95a","109.242.61.136","Mozilla/5.0 (Windows NT 10.0; Win64; x64) AppleWebKit/537.36 (KHTML, like Gecko) Chrome/100.0.4896.127 Safari/537.36","WebKit","Chrome","100.0.4896.127","Windows","10.0","60ca1c436511b9fc8ab35615","62562cd9fd8151f6abdbe5c0","6260cfbc4e6f8056f16da511","942.6000000238419","f","","","
                      <div class=""row"">

                          <div class=""column"">
                              <div class=""orange""></div>
                              <div class=""leftChoiceText"">
                                  <p style=""font-size: 32px""><b>F</b></p>
                              </div>
                          </div>

                          <div class=""column"">
                              <div class=""pink""></div>
                              <div class=""rightChoiceText"">
                                  <p style=""font-size: 32px""><b>J</b></p>
                              </div>
                          </div>

                      </div>

                      <div class=""centeredTop"">
                          Which colour do you<br>
                          predict will win?
                      </div>","Z_1_P",""
"","","","","","html-keyboard-response","41","207583","0.0-2.0-1.0-4.0-1.0","49","1","2022-04-21 03:31:21","07fc0bccf7d27b14a45717ad72d6b95a","109.242.61.136","Mozilla/5.0 (Windows NT 10.0; Win64; x64) AppleWebKit/537.36 (KHTML, like Gecko) Chrome/100.0.4896.127 Safari/537.36","WebKit","Chrome","100.0.4896.127","Windows","10.0","60ca1c436511b9fc8ab35615","62562cd9fd8151f6abdbe5c0","6260cfbc4e6f8056f16da511","null","null","","","<p style=""font-size:64px;"">+</p>","Z_1_P",""
"","","","","","html-keyboard-response","42","207986","0.0-2.0-2.0-0.0-0.0","49","1","2022-04-21 03:31:21","07fc0bccf7d27b14a45717ad72d6b95a","109.242.61.136","Mozilla/5.0 (Windows NT 10.0; Win64; x64) AppleWebKit/537.36 (KHTML, like Gecko) Chrome/100.0.4896.127 Safari/537.36","WebKit","Chrome","100.0.4896.127","Windows","10.0","60ca1c436511b9fc8ab35615","62562cd9fd8151f6abdbe5c0","6260cfbc4e6f8056f16da511","null","null","","","<p style=""font-size:64px;"">+</p>","P_4_3_O",""
"","","","","","html-keyboard-response","43","209239","0.0-2.0-2.0-0.0-1.0","49","1","2022-04-21 03:31:21","07fc0bccf7d27b14a45717ad72d6b95a","109.242.61.136","Mozilla/5.0 (Windows NT 10.0; Win64; x64) AppleWebKit/537.36 (KHTML, like Gecko) Chrome/100.0.4896.127 Safari/537.36","WebKit","Chrome","100.0.4896.127","Windows","10.0","60ca1c436511b9fc8ab35615","62562cd9fd8151f6abdbe5c0","6260cfbc4e6f8056f16da511","null","null","","","
                        <div class=orange>
                        <div class=""centered"">
                            <p style=""font-size: 24px""><b>53%</b></p>
                        </div>","P_4_3_O",""
"","","","","","html-keyboard-response","44","209641","0.0-2.0-2.0-0.0-0.1","49","1","2022-04-21 03:31:21","07fc0bccf7d27b14a45717ad72d6b95a","109.242.61.136","Mozilla/5.0 (Windows NT 10.0; Win64; x64) AppleWebKit/537.36 (KHTML, like Gecko) Chrome/100.0.4896.127 Safari/537.36","WebKit","Chrome","100.0.4896.127","Windows","10.0","60ca1c436511b9fc8ab35615","62562cd9fd8151f6abdbe5c0","6260cfbc4e6f8056f16da511","null","null","","","<p style=""font-size:64px;"">+</p>","P_4_3_O",""
"","","","","","html-keyboard-response","45","210893","0.0-2.0-2.0-0.0-1.1","49","1","2022-04-21 03:31:21","07fc0bccf7d27b14a45717ad72d6b95a","109.242.61.136","Mozilla/5.0 (Windows NT 10.0; Win64; x64) AppleWebKit/537.36 (KHTML, like Gecko) Chrome/100.0.4896.127 Safari/537.36","WebKit","Chrome","100.0.4896.127","Windows","10.0","60ca1c436511b9fc8ab35615","62562cd9fd8151f6abdbe5c0","6260cfbc4e6f8056f16da511","null","null","","","
                        <div class=orange>
                        <div class=""centered"">
                            <p style=""font-size: 24px""><b>52%</b></p>
                        </div>","P_4_3_O",""
"","","","","","html-keyboard-response","46","211296","0.0-2.0-2.0-0.0-0.2","49","1","2022-04-21 03:31:21","07fc0bccf7d27b14a45717ad72d6b95a","109.242.61.136","Mozilla/5.0 (Windows NT 10.0; Win64; x64) AppleWebKit/537.36 (KHTML, like Gecko) Chrome/100.0.4896.127 Safari/537.36","WebKit","Chrome","100.0.4896.127","Windows","10.0","60ca1c436511b9fc8ab35615","62562cd9fd8151f6abdbe5c0","6260cfbc4e6f8056f16da511","null","null","","","<p style=""font-size:64px;"">+</p>","P_4_3_O",""
"","","","","","html-keyboard-response","47","212548","0.0-2.0-2.0-0.0-1.2","49","1","2022-04-21 03:31:21","07fc0bccf7d27b14a45717ad72d6b95a","109.242.61.136","Mozilla/5.0 (Windows NT 10.0; Win64; x64) AppleWebKit/537.36 (KHTML, like Gecko) Chrome/100.0.4896.127 Safari/537.36","WebKit","Chrome","100.0.4896.127","Windows","10.0","60ca1c436511b9fc8ab35615","62562cd9fd8151f6abdbe5c0","6260cfbc4e6f8056f16da511","null","null","","","
                        <div class=orange>
                        <div class=""centered"">
                            <p style=""font-size: 24px""><b>52%</b></p>
                        </div>","P_4_3_O",""
"","","","","","html-keyboard-response","48","212952","0.0-2.0-2.0-0.0-0.3","49","1","2022-04-21 03:31:21","07fc0bccf7d27b14a45717ad72d6b95a","109.242.61.136","Mozilla/5.0 (Windows NT 10.0; Win64; x64) AppleWebKit/537.36 (KHTML, like Gecko) Chrome/100.0.4896.127 Safari/537.36","WebKit","Chrome","100.0.4896.127","Windows","10.0","60ca1c436511b9fc8ab35615","62562cd9fd8151f6abdbe5c0","6260cfbc4e6f8056f16da511","null","null","","","<p style=""font-size:64px;"">+</p>","P_4_3_O",""
"","","","","","html-keyboard-response","49","214204","0.0-2.0-2.0-0.0-1.3","49","1","2022-04-21 03:31:21","07fc0bccf7d27b14a45717ad72d6b95a","109.242.61.136","Mozilla/5.0 (Windows NT 10.0; Win64; x64) AppleWebKit/537.36 (KHTML, like Gecko) Chrome/100.0.4896.127 Safari/537.36","WebKit","Chrome","100.0.4896.127","Windows","10.0","60ca1c436511b9fc8ab35615","62562cd9fd8151f6abdbe5c0","6260cfbc4e6f8056f16da511","null","null","","","
                        <div class=pink>
                        <div class=""centered"">
                            <p style=""font-size: 24px""><b>55%</b></p>
                        </div>","P_4_3_O",""
"","","","","","html-keyboard-response","50","214606","0.0-2.0-2.0-0.0-0.4","49","1","2022-04-21 03:31:21","07fc0bccf7d27b14a45717ad72d6b95a","109.242.61.136","Mozilla/5.0 (Windows NT 10.0; Win64; x64) AppleWebKit/537.36 (KHTML, like Gecko) Chrome/100.0.4896.127 Safari/537.36","WebKit","Chrome","100.0.4896.127","Windows","10.0","60ca1c436511b9fc8ab35615","62562cd9fd8151f6abdbe5c0","6260cfbc4e6f8056f16da511","null","null","","","<p style=""font-size:64px;"">+</p>","P_4_3_O",""
"","","","","","html-keyboard-response","51","215859","0.0-2.0-2.0-0.0-1.4","49","1","2022-04-21 03:31:21","07fc0bccf7d27b14a45717ad72d6b95a","109.242.61.136","Mozilla/5.0 (Windows NT 10.0; Win64; x64) AppleWebKit/537.36 (KHTML, like Gecko) Chrome/100.0.4896.127 Safari/537.36","WebKit","Chrome","100.0.4896.127","Windows","10.0","60ca1c436511b9fc8ab35615","62562cd9fd8151f6abdbe5c0","6260cfbc4e6f8056f16da511","null","null","","","
                        <div class=pink>
                        <div class=""centered"">
                            <p style=""font-size: 24px""><b>53%</b></p>
                        </div>","P_4_3_O",""
"","","","","","html-keyboard-response","52","216262","0.0-2.0-2.0-0.0-0.5","49","1","2022-04-21 03:31:21","07fc0bccf7d27b14a45717ad72d6b95a","109.242.61.136","Mozilla/5.0 (Windows NT 10.0; Win64; x64) AppleWebKit/537.36 (KHTML, like Gecko) Chrome/100.0.4896.127 Safari/537.36","WebKit","Chrome","100.0.4896.127","Windows","10.0","60ca1c436511b9fc8ab35615","62562cd9fd8151f6abdbe5c0","6260cfbc4e6f8056f16da511","null","null","","","<p style=""font-size:64px;"">+</p>","P_4_3_O",""
"","","","","","html-keyboard-response","53","217515","0.0-2.0-2.0-0.0-1.5","49","1","2022-04-21 03:31:21","07fc0bccf7d27b14a45717ad72d6b95a","109.242.61.136","Mozilla/5.0 (Windows NT 10.0; Win64; x64) AppleWebKit/537.36 (KHTML, like Gecko) Chrome/100.0.4896.127 Safari/537.36","WebKit","Chrome","100.0.4896.127","Windows","10.0","60ca1c436511b9fc8ab35615","62562cd9fd8151f6abdbe5c0","6260cfbc4e6f8056f16da511","null","null","","","
                        <div class=pink>
                        <div class=""centered"">
                            <p style=""font-size: 24px""><b>53%</b></p>
                        </div>","P_4_3_O",""
"","","","","","html-keyboard-response","54","217919","0.0-2.0-2.0-1.0-0.0","49","1","2022-04-21 03:31:21","07fc0bccf7d27b14a45717ad72d6b95a","109.242.61.136","Mozilla/5.0 (Windows NT 10.0; Win64; x64) AppleWebKit/537.36 (KHTML, like Gecko) Chrome/100.0.4896.127 Safari/537.36","WebKit","Chrome","100.0.4896.127","Windows","10.0","60ca1c436511b9fc8ab35615","62562cd9fd8151f6abdbe5c0","6260cfbc4e6f8056f16da511","null","null","","","<p style=""font-size:64px;"">+</p>","P_4_3_O",""
"","","","","","html-keyboard-response","55","219171","0.0-2.0-2.0-1.0-1.0","49","1","2022-04-21 03:31:21","07fc0bccf7d27b14a45717ad72d6b95a","109.242.61.136","Mozilla/5.0 (Windows NT 10.0; Win64; x64) AppleWebKit/537.36 (KHTML, like Gecko) Chrome/100.0.4896.127 Safari/537.36","WebKit","Chrome","100.0.4896.127","Windows","10.0","60ca1c436511b9fc8ab35615","62562cd9fd8151f6abdbe5c0","6260cfbc4e6f8056f16da511","null","null","","","
                        <div class=""orange"">
                        <div class=""centered"">
                            <p style=""font-size: 24px""><b>50%</b></p>
                        </div>","P_4_3_O",""
"","","","","","html-slider-response","56","224750","0.0-2.0-2.0-2.0","49","1","2022-04-21 03:31:21","07fc0bccf7d27b14a45717ad72d6b95a","109.242.61.136","Mozilla/5.0 (Windows NT 10.0; Win64; x64) AppleWebKit/537.36 (KHTML, like Gecko) Chrome/100.0.4896.127 Safari/537.36","WebKit","Chrome","100.0.4896.127","Windows","10.0","60ca1c436511b9fc8ab35615","62562cd9fd8151f6abdbe5c0","6260cfbc4e6f8056f16da511","5576.800000011921","0","","","<div style=""width: 500px; height: 100px;""><p>Place your bid for more information.</p></div>","infoBid","0"
"","","","","","html-keyboard-response","57","225153","0.0-2.0-2.0-3.0-0.0","49","1","2022-04-21 03:31:21","07fc0bccf7d27b14a45717ad72d6b95a","109.242.61.136","Mozilla/5.0 (Windows NT 10.0; Win64; x64) AppleWebKit/537.36 (KHTML, like Gecko) Chrome/100.0.4896.127 Safari/537.36","WebKit","Chrome","100.0.4896.127","Windows","10.0","60ca1c436511b9fc8ab35615","62562cd9fd8151f6abdbe5c0","6260cfbc4e6f8056f16da511","null","null","","","<p style=""font-size:64px;"">+</p>","P_4_3_O",""
"","","","","","html-keyboard-response","58","226406","0.0-2.0-2.0-3.0-1.0","49","1","2022-04-21 03:31:21","07fc0bccf7d27b14a45717ad72d6b95a","109.242.61.136","Mozilla/5.0 (Windows NT 10.0; Win64; x64) AppleWebKit/537.36 (KHTML, like Gecko) Chrome/100.0.4896.127 Safari/537.36","WebKit","Chrome","100.0.4896.127","Windows","10.0","60ca1c436511b9fc8ab35615","62562cd9fd8151f6abdbe5c0","6260cfbc4e6f8056f16da511","null","null","","","<div class=""grey"">
                <div class=""centered"">
                    <p style=""font-size: 24px""><b>???</b></p>
                </div>","P_4_3_O",""
"","","","","","html-keyboard-response","59","227084","0.0-2.0-2.0-4.0-0.0","49","1","2022-04-21 03:31:21","07fc0bccf7d27b14a45717ad72d6b95a","109.242.61.136","Mozilla/5.0 (Windows NT 10.0; Win64; x64) AppleWebKit/537.36 (KHTML, like Gecko) Chrome/100.0.4896.127 Safari/537.36","WebKit","Chrome","100.0.4896.127","Windows","10.0","60ca1c436511b9fc8ab35615","62562cd9fd8151f6abdbe5c0","6260cfbc4e6f8056f16da511","675.5999999642372","j","","","
                      <div class=""row"">

                          <div class=""column"">
                              <div class=""orange""></div>
                              <div class=""leftChoiceText"">
                                  <p style=""font-size: 32px""><b>F</b></p>
                              </div>
                          </div>

                          <div class=""column"">
                              <div class=""pink""></div>
                              <div class=""rightChoiceText"">
                                  <p style=""font-size: 32px""><b>J</b></p>
                              </div>
                          </div>

                      </div>

                      <div class=""centeredTop"">
                          Which colour do you<br>
                          predict will win?
                      </div>","P_4_3_O",""
"","","","","","html-keyboard-response","60","228587","0.0-2.0-2.0-4.0-1.0","49","1","2022-04-21 03:31:21","07fc0bccf7d27b14a45717ad72d6b95a","109.242.61.136","Mozilla/5.0 (Windows NT 10.0; Win64; x64) AppleWebKit/537.36 (KHTML, like Gecko) Chrome/100.0.4896.127 Safari/537.36","WebKit","Chrome","100.0.4896.127","Windows","10.0","60ca1c436511b9fc8ab35615","62562cd9fd8151f6abdbe5c0","6260cfbc4e6f8056f16da511","null","null","","","<p style=""font-size:64px;"">+</p>","P_4_3_O",""
"","","","","","html-keyboard-response","61","228989","0.0-2.0-3.0-0.0-0.0","49","1","2022-04-21 03:31:21","07fc0bccf7d27b14a45717ad72d6b95a","109.242.61.136","Mozilla/5.0 (Windows NT 10.0; Win64; x64) AppleWebKit/537.36 (KHTML, like Gecko) Chrome/100.0.4896.127 Safari/537.36","WebKit","Chrome","100.0.4896.127","Windows","10.0","60ca1c436511b9fc8ab35615","62562cd9fd8151f6abdbe5c0","6260cfbc4e6f8056f16da511","null","null","","","<p style=""font-size:64px;"">+</p>","O_2_4_O",""
"","","","","","html-keyboard-response","62","230243","0.0-2.0-3.0-0.0-1.0","49","1","2022-04-21 03:31:21","07fc0bccf7d27b14a45717ad72d6b95a","109.242.61.136","Mozilla/5.0 (Windows NT 10.0; Win64; x64) AppleWebKit/537.36 (KHTML, like Gecko) Chrome/100.0.4896.127 Safari/537.36","WebKit","Chrome","100.0.4896.127","Windows","10.0","60ca1c436511b9fc8ab35615","62562cd9fd8151f6abdbe5c0","6260cfbc4e6f8056f16da511","null","null","","","
                        <div class=orange>
                        <div class=""centered"">
                            <p style=""font-size: 24px""><b>55%</b></p>
                        </div>","O_2_4_O",""
"","","","","","html-keyboard-response","63","230646","0.0-2.0-3.0-0.0-0.1","49","1","2022-04-21 03:31:21","07fc0bccf7d27b14a45717ad72d6b95a","109.242.61.136","Mozilla/5.0 (Windows NT 10.0; Win64; x64) AppleWebKit/537.36 (KHTML, like Gecko) Chrome/100.0.4896.127 Safari/537.36","WebKit","Chrome","100.0.4896.127","Windows","10.0","60ca1c436511b9fc8ab35615","62562cd9fd8151f6abdbe5c0","6260cfbc4e6f8056f16da511","null","null","","","<p style=""font-size:64px;"">+</p>","O_2_4_O",""
"","","","","","html-keyboard-response","64","231898","0.0-2.0-3.0-0.0-1.1","49","1","2022-04-21 03:31:21","07fc0bccf7d27b14a45717ad72d6b95a","109.242.61.136","Mozilla/5.0 (Windows NT 10.0; Win64; x64) AppleWebKit/537.36 (KHTML, like Gecko) Chrome/100.0.4896.127 Safari/537.36","WebKit","Chrome","100.0.4896.127","Windows","10.0","60ca1c436511b9fc8ab35615","62562cd9fd8151f6abdbe5c0","6260cfbc4e6f8056f16da511","null","null","","","
                        <div class=pink>
                        <div class=""centered"">
                            <p style=""font-size: 24px""><b>55%</b></p>
                        </div>","O_2_4_O",""
"","","","","","html-keyboard-response","65","232301","0.0-2.0-3.0-0.0-0.2","49","1","2022-04-21 03:31:21","07fc0bccf7d27b14a45717ad72d6b95a","109.242.61.136","Mozilla/5.0 (Windows NT 10.0; Win64; x64) AppleWebKit/537.36 (KHTML, like Gecko) Chrome/100.0.4896.127 Safari/537.36","WebKit","Chrome","100.0.4896.127","Windows","10.0","60ca1c436511b9fc8ab35615","62562cd9fd8151f6abdbe5c0","6260cfbc4e6f8056f16da511","null","null","","","<p style=""font-size:64px;"">+</p>","O_2_4_O",""
"","","","","","html-keyboard-response","66","233554","0.0-2.0-3.0-0.0-1.2","49","1","2022-04-21 03:31:21","07fc0bccf7d27b14a45717ad72d6b95a","109.242.61.136","Mozilla/5.0 (Windows NT 10.0; Win64; x64) AppleWebKit/537.36 (KHTML, like Gecko) Chrome/100.0.4896.127 Safari/537.36","WebKit","Chrome","100.0.4896.127","Windows","10.0","60ca1c436511b9fc8ab35615","62562cd9fd8151f6abdbe5c0","6260cfbc4e6f8056f16da511","null","null","","","
                        <div class=pink>
                        <div class=""centered"">
                            <p style=""font-size: 24px""><b>52%</b></p>
                        </div>","O_2_4_O",""
"","","","","","html-keyboard-response","67","233956","0.0-2.0-3.0-0.0-0.3","49","1","2022-04-21 03:31:21","07fc0bccf7d27b14a45717ad72d6b95a","109.242.61.136","Mozilla/5.0 (Windows NT 10.0; Win64; x64) AppleWebKit/537.36 (KHTML, like Gecko) Chrome/100.0.4896.127 Safari/537.36","WebKit","Chrome","100.0.4896.127","Windows","10.0","60ca1c436511b9fc8ab35615","62562cd9fd8151f6abdbe5c0","6260cfbc4e6f8056f16da511","null","null","","","<p style=""font-size:64px;"">+</p>","O_2_4_O",""
"","","","","","html-keyboard-response","68","235208","0.0-2.0-3.0-0.0-1.3","49","1","2022-04-21 03:31:21","07fc0bccf7d27b14a45717ad72d6b95a","109.242.61.136","Mozilla/5.0 (Windows NT 10.0; Win64; x64) AppleWebKit/537.36 (KHTML, like Gecko) Chrome/100.0.4896.127 Safari/537.36","WebKit","Chrome","100.0.4896.127","Windows","10.0","60ca1c436511b9fc8ab35615","62562cd9fd8151f6abdbe5c0","6260cfbc4e6f8056f16da511","null","null","","","
                        <div class=orange>
                        <div class=""centered"">
                            <p style=""font-size: 24px""><b>52%</b></p>
                        </div>","O_2_4_O",""
"","","","","","html-keyboard-response","69","235612","0.0-2.0-3.0-0.0-0.4","49","1","2022-04-21 03:31:21","07fc0bccf7d27b14a45717ad72d6b95a","109.242.61.136","Mozilla/5.0 (Windows NT 10.0; Win64; x64) AppleWebKit/537.36 (KHTML, like Gecko) Chrome/100.0.4896.127 Safari/537.36","WebKit","Chrome","100.0.4896.127","Windows","10.0","60ca1c436511b9fc8ab35615","62562cd9fd8151f6abdbe5c0","6260cfbc4e6f8056f16da511","null","null","","","<p style=""font-size:64px;"">+</p>","O_2_4_O",""
"","","","","","html-keyboard-response","70","236865","0.0-2.0-3.0-0.0-1.4","49","1","2022-04-21 03:31:21","07fc0bccf7d27b14a45717ad72d6b95a","109.242.61.136","Mozilla/5.0 (Windows NT 10.0; Win64; x64) AppleWebKit/537.36 (KHTML, like Gecko) Chrome/100.0.4896.127 Safari/537.36","WebKit","Chrome","100.0.4896.127","Windows","10.0","60ca1c436511b9fc8ab35615","62562cd9fd8151f6abdbe5c0","6260cfbc4e6f8056f16da511","null","null","","","
                        <div class=orange>
                        <div class=""centered"">
                            <p style=""font-size: 24px""><b>54%</b></p>
                        </div>","O_2_4_O",""
"","","","","","html-keyboard-response","71","237268","0.0-2.0-3.0-0.0-0.5","49","1","2022-04-21 03:31:21","07fc0bccf7d27b14a45717ad72d6b95a","109.242.61.136","Mozilla/5.0 (Windows NT 10.0; Win64; x64) AppleWebKit/537.36 (KHTML, like Gecko) Chrome/100.0.4896.127 Safari/537.36","WebKit","Chrome","100.0.4896.127","Windows","10.0","60ca1c436511b9fc8ab35615","62562cd9fd8151f6abdbe5c0","6260cfbc4e6f8056f16da511","null","null","","","<p style=""font-size:64px;"">+</p>","O_2_4_O",""
"","","","","","html-keyboard-response","72","238522","0.0-2.0-3.0-0.0-1.5","49","1","2022-04-21 03:31:21","07fc0bccf7d27b14a45717ad72d6b95a","109.242.61.136","Mozilla/5.0 (Windows NT 10.0; Win64; x64) AppleWebKit/537.36 (KHTML, like Gecko) Chrome/100.0.4896.127 Safari/537.36","WebKit","Chrome","100.0.4896.127","Windows","10.0","60ca1c436511b9fc8ab35615","62562cd9fd8151f6abdbe5c0","6260cfbc4e6f8056f16da511","null","null","","","
                        <div class=pink>
                        <div class=""centered"">
                            <p style=""font-size: 24px""><b>52%</b></p>
                        </div>","O_2_4_O",""
"","","","","","html-keyboard-response","73","238925","0.0-2.0-3.0-1.0-0.0","49","1","2022-04-21 03:31:21","07fc0bccf7d27b14a45717ad72d6b95a","109.242.61.136","Mozilla/5.0 (Windows NT 10.0; Win64; x64) AppleWebKit/537.36 (KHTML, like Gecko) Chrome/100.0.4896.127 Safari/537.36","WebKit","Chrome","100.0.4896.127","Windows","10.0","60ca1c436511b9fc8ab35615","62562cd9fd8151f6abdbe5c0","6260cfbc4e6f8056f16da511","null","null","","","<p style=""font-size:64px;"">+</p>","O_2_4_O",""
"","","","","","html-keyboard-response","74","240178","0.0-2.0-3.0-1.0-1.0","49","1","2022-04-21 03:31:21","07fc0bccf7d27b14a45717ad72d6b95a","109.242.61.136","Mozilla/5.0 (Windows NT 10.0; Win64; x64) AppleWebKit/537.36 (KHTML, like Gecko) Chrome/100.0.4896.127 Safari/537.36","WebKit","Chrome","100.0.4896.127","Windows","10.0","60ca1c436511b9fc8ab35615","62562cd9fd8151f6abdbe5c0","6260cfbc4e6f8056f16da511","null","null","","","
                        <div class=""orange"">
                        <div class=""centered"">
                            <p style=""font-size: 24px""><b>50%</b></p>
                        </div>","O_2_4_O",""
"","","","","","html-slider-response","75","243062","0.0-2.0-3.0-2.0","49","1","2022-04-21 03:31:21","07fc0bccf7d27b14a45717ad72d6b95a","109.242.61.136","Mozilla/5.0 (Windows NT 10.0; Win64; x64) AppleWebKit/537.36 (KHTML, like Gecko) Chrome/100.0.4896.127 Safari/537.36","WebKit","Chrome","100.0.4896.127","Windows","10.0","60ca1c436511b9fc8ab35615","62562cd9fd8151f6abdbe5c0","6260cfbc4e6f8056f16da511","2881.5","3","","","<div style=""width: 500px; height: 100px;""><p>Place your bid for more information.</p></div>","infoBid","0"
"","","","","","html-keyboard-response","76","243465","0.0-2.0-3.0-3.0-0.0","49","1","2022-04-21 03:31:21","07fc0bccf7d27b14a45717ad72d6b95a","109.242.61.136","Mozilla/5.0 (Windows NT 10.0; Win64; x64) AppleWebKit/537.36 (KHTML, like Gecko) Chrome/100.0.4896.127 Safari/537.36","WebKit","Chrome","100.0.4896.127","Windows","10.0","60ca1c436511b9fc8ab35615","62562cd9fd8151f6abdbe5c0","6260cfbc4e6f8056f16da511","null","null","","","<p style=""font-size:64px;"">+</p>","O_2_4_O",""
"","","","","","html-keyboard-response","77","244720","0.0-2.0-3.0-3.0-1.0","49","1","2022-04-21 03:31:21","07fc0bccf7d27b14a45717ad72d6b95a","109.242.61.136","Mozilla/5.0 (Windows NT 10.0; Win64; x64) AppleWebKit/537.36 (KHTML, like Gecko) Chrome/100.0.4896.127 Safari/537.36","WebKit","Chrome","100.0.4896.127","Windows","10.0","60ca1c436511b9fc8ab35615","62562cd9fd8151f6abdbe5c0","6260cfbc4e6f8056f16da511","null","null","","","<div class=orange>
                <div class=""centered"">
                    <p style=""font-size: 24px""><b>52%</b></p>
                </div>","O_2_4_O",""
"","","","","","html-keyboard-response","78","245263","0.0-2.0-3.0-4.0-0.0","49","1","2022-04-21 03:31:21","07fc0bccf7d27b14a45717ad72d6b95a","109.242.61.136","Mozilla/5.0 (Windows NT 10.0; Win64; x64) AppleWebKit/537.36 (KHTML, like Gecko) Chrome/100.0.4896.127 Safari/537.36","WebKit","Chrome","100.0.4896.127","Windows","10.0","60ca1c436511b9fc8ab35615","62562cd9fd8151f6abdbe5c0","6260cfbc4e6f8056f16da511","541.5","f","","","
                      <div class=""row"">

                          <div class=""column"">
                              <div class=""orange""></div>
                              <div class=""leftChoiceText"">
                                  <p style=""font-size: 32px""><b>F</b></p>
                              </div>
                          </div>

                          <div class=""column"">
                              <div class=""pink""></div>
                              <div class=""rightChoiceText"">
                                  <p style=""font-size: 32px""><b>J</b></p>
                              </div>
                          </div>

                      </div>

                      <div class=""centeredTop"">
                          Which colour do you<br>
                          predict will win?
                      </div>","O_2_4_O",""
"","","","","","html-keyboard-response","79","246766","0.0-2.0-3.0-4.0-1.0","49","1","2022-04-21 03:31:21","07fc0bccf7d27b14a45717ad72d6b95a","109.242.61.136","Mozilla/5.0 (Windows NT 10.0; Win64; x64) AppleWebKit/537.36 (KHTML, like Gecko) Chrome/100.0.4896.127 Safari/537.36","WebKit","Chrome","100.0.4896.127","Windows","10.0","60ca1c436511b9fc8ab35615","62562cd9fd8151f6abdbe5c0","6260cfbc4e6f8056f16da511","null","null","","","<p style=""font-size:64px;"">+</p>","O_2_4_O",""
"","","","","","html-keyboard-response","80","247169","0.0-2.0-4.0-0.0-0.0","49","1","2022-04-21 03:31:21","07fc0bccf7d27b14a45717ad72d6b95a","109.242.61.136","Mozilla/5.0 (Windows NT 10.0; Win64; x64) AppleWebKit/537.36 (KHTML, like Gecko) Chrome/100.0.4896.127 Safari/537.36","WebKit","Chrome","100.0.4896.127","Windows","10.0","60ca1c436511b9fc8ab35615","62562cd9fd8151f6abdbe5c0","6260cfbc4e6f8056f16da511","null","null","","","<p style=""font-size:64px;"">+</p>","P_4_1_O",""
"","","","","","html-keyboard-response","81","248422","0.0-2.0-4.0-0.0-1.0","49","1","2022-04-21 03:31:21","07fc0bccf7d27b14a45717ad72d6b95a","109.242.61.136","Mozilla/5.0 (Windows NT 10.0; Win64; x64) AppleWebKit/537.36 (KHTML, like Gecko) Chrome/100.0.4896.127 Safari/537.36","WebKit","Chrome","100.0.4896.127","Windows","10.0","60ca1c436511b9fc8ab35615","62562cd9fd8151f6abdbe5c0","6260cfbc4e6f8056f16da511","null","null","","","
                        <div class=orange>
                        <div class=""centered"">
                            <p style=""font-size: 24px""><b>51%</b></p>
                        </div>","P_4_1_O",""
"","","","","","html-keyboard-response","82","248825","0.0-2.0-4.0-0.0-0.1","49","1","2022-04-21 03:31:21","07fc0bccf7d27b14a45717ad72d6b95a","109.242.61.136","Mozilla/5.0 (Windows NT 10.0; Win64; x64) AppleWebKit/537.36 (KHTML, like Gecko) Chrome/100.0.4896.127 Safari/537.36","WebKit","Chrome","100.0.4896.127","Windows","10.0","60ca1c436511b9fc8ab35615","62562cd9fd8151f6abdbe5c0","6260cfbc4e6f8056f16da511","null","null","","","<p style=""font-size:64px;"">+</p>","P_4_1_O",""
"","","","","","html-keyboard-response","83","250083","0.0-2.0-4.0-0.0-1.1","49","1","2022-04-21 03:31:21","07fc0bccf7d27b14a45717ad72d6b95a","109.242.61.136","Mozilla/5.0 (Windows NT 10.0; Win64; x64) AppleWebKit/537.36 (KHTML, like Gecko) Chrome/100.0.4896.127 Safari/537.36","WebKit","Chrome","100.0.4896.127","Windows","10.0","60ca1c436511b9fc8ab35615","62562cd9fd8151f6abdbe5c0","6260cfbc4e6f8056f16da511","null","null","","","
                        <div class=pink>
                        <div class=""centered"">
                            <p style=""font-size: 24px""><b>54%</b></p>
                        </div>","P_4_1_O",""
"","","","","","html-keyboard-response","84","250485","0.0-2.0-4.0-0.0-0.2","49","1","2022-04-21 03:31:21","07fc0bccf7d27b14a45717ad72d6b95a","109.242.61.136","Mozilla/5.0 (Windows NT 10.0; Win64; x64) AppleWebKit/537.36 (KHTML, like Gecko) Chrome/100.0.4896.127 Safari/537.36","WebKit","Chrome","100.0.4896.127","Windows","10.0","60ca1c436511b9fc8ab35615","62562cd9fd8151f6abdbe5c0","6260cfbc4e6f8056f16da511","null","null","","","<p style=""font-size:64px;"">+</p>","P_4_1_O",""
"","","","","","html-keyboard-response","85","251740","0.0-2.0-4.0-0.0-1.2","49","1","2022-04-21 03:31:21","07fc0bccf7d27b14a45717ad72d6b95a","109.242.61.136","Mozilla/5.0 (Windows NT 10.0; Win64; x64) AppleWebKit/537.36 (KHTML, like Gecko) Chrome/100.0.4896.127 Safari/537.36","WebKit","Chrome","100.0.4896.127","Windows","10.0","60ca1c436511b9fc8ab35615","62562cd9fd8151f6abdbe5c0","6260cfbc4e6f8056f16da511","null","null","","","
                        <div class=orange>
                        <div class=""centered"">
                            <p style=""font-size: 24px""><b>51%</b></p>
                        </div>","P_4_1_O",""
"","","","","","html-keyboard-response","86","252155","0.0-2.0-4.0-0.0-0.3","49","1","2022-04-21 03:31:21","07fc0bccf7d27b14a45717ad72d6b95a","109.242.61.136","Mozilla/5.0 (Windows NT 10.0; Win64; x64) AppleWebKit/537.36 (KHTML, like Gecko) Chrome/100.0.4896.127 Safari/537.36","WebKit","Chrome","100.0.4896.127","Windows","10.0","60ca1c436511b9fc8ab35615","62562cd9fd8151f6abdbe5c0","6260cfbc4e6f8056f16da511","null","null","","","<p style=""font-size:64px;"">+</p>","P_4_1_O",""
"","","","","","html-keyboard-response","87","253407","0.0-2.0-4.0-0.0-1.3","49","1","2022-04-21 03:31:21","07fc0bccf7d27b14a45717ad72d6b95a","109.242.61.136","Mozilla/5.0 (Windows NT 10.0; Win64; x64) AppleWebKit/537.36 (KHTML, like Gecko) Chrome/100.0.4896.127 Safari/537.36","WebKit","Chrome","100.0.4896.127","Windows","10.0","60ca1c436511b9fc8ab35615","62562cd9fd8151f6abdbe5c0","6260cfbc4e6f8056f16da511","null","null","","","
                        <div class=pink>
                        <div class=""centered"">
                            <p style=""font-size: 24px""><b>54%</b></p>
                        </div>","P_4_1_O",""
"","","","","","html-keyboard-response","88","253814","0.0-2.0-4.0-0.0-0.4","49","1","2022-04-21 03:31:21","07fc0bccf7d27b14a45717ad72d6b95a","109.242.61.136","Mozilla/5.0 (Windows NT 10.0; Win64; x64) AppleWebKit/537.36 (KHTML, like Gecko) Chrome/100.0.4896.127 Safari/537.36","WebKit","Chrome","100.0.4896.127","Windows","10.0","60ca1c436511b9fc8ab35615","62562cd9fd8151f6abdbe5c0","6260cfbc4e6f8056f16da511","null","null","","","<p style=""font-size:64px;"">+</p>","P_4_1_O",""
"","","","","","html-keyboard-response","89","255067","0.0-2.0-4.0-0.0-1.4","49","1","2022-04-21 03:31:21","07fc0bccf7d27b14a45717ad72d6b95a","109.242.61.136","Mozilla/5.0 (Windows NT 10.0; Win64; x64) AppleWebKit/537.36 (KHTML, like Gecko) Chrome/100.0.4896.127 Safari/537.36","WebKit","Chrome","100.0.4896.127","Windows","10.0","60ca1c436511b9fc8ab35615","62562cd9fd8151f6abdbe5c0","6260cfbc4e6f8056f16da511","null","null","","","
                        <div class=pink>
                        <div class=""centered"">
                            <p style=""font-size: 24px""><b>53%</b></p>
                        </div>","P_4_1_O",""
"","","","","","html-keyboard-response","90","255471","0.0-2.0-4.0-0.0-0.5","49","1","2022-04-21 03:31:21","07fc0bccf7d27b14a45717ad72d6b95a","109.242.61.136","Mozilla/5.0 (Windows NT 10.0; Win64; x64) AppleWebKit/537.36 (KHTML, like Gecko) Chrome/100.0.4896.127 Safari/537.36","WebKit","Chrome","100.0.4896.127","Windows","10.0","60ca1c436511b9fc8ab35615","62562cd9fd8151f6abdbe5c0","6260cfbc4e6f8056f16da511","null","null","","","<p style=""font-size:64px;"">+</p>","P_4_1_O",""
"","","","","","html-keyboard-response","91","256725","0.0-2.0-4.0-0.0-1.5","49","1","2022-04-21 03:31:21","07fc0bccf7d27b14a45717ad72d6b95a","109.242.61.136","Mozilla/5.0 (Windows NT 10.0; Win64; x64) AppleWebKit/537.36 (KHTML, like Gecko) Chrome/100.0.4896.127 Safari/537.36","WebKit","Chrome","100.0.4896.127","Windows","10.0","60ca1c436511b9fc8ab35615","62562cd9fd8151f6abdbe5c0","6260cfbc4e6f8056f16da511","null","null","","","
                        <div class=orange>
                        <div class=""centered"">
                            <p style=""font-size: 24px""><b>55%</b></p>
                        </div>","P_4_1_O",""
"","","","","","html-keyboard-response","92","257128","0.0-2.0-4.0-1.0-0.0","49","1","2022-04-21 03:31:21","07fc0bccf7d27b14a45717ad72d6b95a","109.242.61.136","Mozilla/5.0 (Windows NT 10.0; Win64; x64) AppleWebKit/537.36 (KHTML, like Gecko) Chrome/100.0.4896.127 Safari/537.36","WebKit","Chrome","100.0.4896.127","Windows","10.0","60ca1c436511b9fc8ab35615","62562cd9fd8151f6abdbe5c0","6260cfbc4e6f8056f16da511","null","null","","","<p style=""font-size:64px;"">+</p>","P_4_1_O",""
"","","","","","html-keyboard-response","93","258382","0.0-2.0-4.0-1.0-1.0","49","1","2022-04-21 03:31:21","07fc0bccf7d27b14a45717ad72d6b95a","109.242.61.136","Mozilla/5.0 (Windows NT 10.0; Win64; x64) AppleWebKit/537.36 (KHTML, like Gecko) Chrome/100.0.4896.127 Safari/537.36","WebKit","Chrome","100.0.4896.127","Windows","10.0","60ca1c436511b9fc8ab35615","62562cd9fd8151f6abdbe5c0","6260cfbc4e6f8056f16da511","null","null","","","
                        <div class=""orange"">
                        <div class=""centered"">
                            <p style=""font-size: 24px""><b>50%</b></p>
                        </div>","P_4_1_O",""
"","","","","","html-slider-response","94","261246","0.0-2.0-4.0-2.0","49","1","2022-04-21 03:31:21","07fc0bccf7d27b14a45717ad72d6b95a","109.242.61.136","Mozilla/5.0 (Windows NT 10.0; Win64; x64) AppleWebKit/537.36 (KHTML, like Gecko) Chrome/100.0.4896.127 Safari/537.36","WebKit","Chrome","100.0.4896.127","Windows","10.0","60ca1c436511b9fc8ab35615","62562cd9fd8151f6abdbe5c0","6260cfbc4e6f8056f16da511","2861","3","","","<div style=""width: 500px; height: 100px;""><p>Place your bid for more information.</p></div>","infoBid","0"
"","","","","","html-keyboard-response","95","261649","0.0-2.0-4.0-3.0-0.0","49","1","2022-04-21 03:31:21","07fc0bccf7d27b14a45717ad72d6b95a","109.242.61.136","Mozilla/5.0 (Windows NT 10.0; Win64; x64) AppleWebKit/537.36 (KHTML, like Gecko) Chrome/100.0.4896.127 Safari/537.36","WebKit","Chrome","100.0.4896.127","Windows","10.0","60ca1c436511b9fc8ab35615","62562cd9fd8151f6abdbe5c0","6260cfbc4e6f8056f16da511","null","null","","","<p style=""font-size:64px;"">+</p>","P_4_1_O",""
"","","","","","html-keyboard-response","96","262903","0.0-2.0-4.0-3.0-1.0","49","1","2022-04-21 03:31:21","07fc0bccf7d27b14a45717ad72d6b95a","109.242.61.136","Mozilla/5.0 (Windows NT 10.0; Win64; x64) AppleWebKit/537.36 (KHTML, like Gecko) Chrome/100.0.4896.127 Safari/537.36","WebKit","Chrome","100.0.4896.127","Windows","10.0","60ca1c436511b9fc8ab35615","62562cd9fd8151f6abdbe5c0","6260cfbc4e6f8056f16da511","null","null","","","<div class=""grey"">
                <div class=""centered"">
                    <p style=""font-size: 24px""><b>???</b></p>
                </div>","P_4_1_O",""
"","","","","","html-keyboard-response","97","263683","0.0-2.0-4.0-4.0-0.0","49","1","2022-04-21 03:31:21","07fc0bccf7d27b14a45717ad72d6b95a","109.242.61.136","Mozilla/5.0 (Windows NT 10.0; Win64; x64) AppleWebKit/537.36 (KHTML, like Gecko) Chrome/100.0.4896.127 Safari/537.36","WebKit","Chrome","100.0.4896.127","Windows","10.0","60ca1c436511b9fc8ab35615","62562cd9fd8151f6abdbe5c0","6260cfbc4e6f8056f16da511","777.3000000119209","j","","","
                      <div class=""row"">

                          <div class=""column"">
                              <div class=""orange""></div>
                              <div class=""leftChoiceText"">
                                  <p style=""font-size: 32px""><b>F</b></p>
                              </div>
                          </div>

                          <div class=""column"">
                              <div class=""pink""></div>
                              <div class=""rightChoiceText"">
                                  <p style=""font-size: 32px""><b>J</b></p>
                              </div>
                          </div>

                      </div>

                      <div class=""centeredTop"">
                          Which colour do you<br>
                          predict will win?
                      </div>","P_4_1_O",""
"","","","","","html-keyboard-response","98","265186","0.0-2.0-4.0-4.0-1.0","49","1","2022-04-21 03:31:21","07fc0bccf7d27b14a45717ad72d6b95a","109.242.61.136","Mozilla/5.0 (Windows NT 10.0; Win64; x64) AppleWebKit/537.36 (KHTML, like Gecko) Chrome/100.0.4896.127 Safari/537.36","WebKit","Chrome","100.0.4896.127","Windows","10.0","60ca1c436511b9fc8ab35615","62562cd9fd8151f6abdbe5c0","6260cfbc4e6f8056f16da511","null","null","","","<p style=""font-size:64px;"">+</p>","P_4_1_O",""
"","","","","","html-keyboard-response","99","267222","0.0-2.0-5.0","49","1","2022-04-21 03:31:21","07fc0bccf7d27b14a45717ad72d6b95a","109.242.61.136","Mozilla/5.0 (Windows NT 10.0; Win64; x64) AppleWebKit/537.36 (KHTML, like Gecko) Chrome/100.0.4896.127 Safari/537.36","WebKit","Chrome","100.0.4896.127","Windows","10.0","60ca1c436511b9fc8ab35615","62562cd9fd8151f6abdbe5c0","6260cfbc4e6f8056f16da511","2034.5"," ","","","This is the end of the practice trials.<br><br>
        Press spacebar to begin the experiment.","",""
"","","","","","html-keyboard-response","100","267625","0.0-2.0-6.0-0.0-0.0","49","1","2022-04-21 03:31:21","07fc0bccf7d27b14a45717ad72d6b95a","109.242.61.136","Mozilla/5.0 (Windows NT 10.0; Win64; x64) AppleWebKit/537.36 (KHTML, like Gecko) Chrome/100.0.4896.127 Safari/537.36","WebKit","Chrome","100.0.4896.127","Windows","10.0","60ca1c436511b9fc8ab35615","62562cd9fd8151f6abdbe5c0","6260cfbc4e6f8056f16da511","null","null","","","<p style=""font-size:64px;"">+</p>","O_4_4_P",""
"","","","","","html-keyboard-response","101","268880","0.0-2.0-6.0-0.0-1.0","49","1","2022-04-21 03:31:21","07fc0bccf7d27b14a45717ad72d6b95a","109.242.61.136","Mozilla/5.0 (Windows NT 10.0; Win64; x64) AppleWebKit/537.36 (KHTML, like Gecko) Chrome/100.0.4896.127 Safari/537.36","WebKit","Chrome","100.0.4896.127","Windows","10.0","60ca1c436511b9fc8ab35615","62562cd9fd8151f6abdbe5c0","6260cfbc4e6f8056f16da511","null","null","","","
                        <div class=orange>
                        <div class=""centered"">
                            <p style=""font-size: 24px""><b>54%</b></p>
                        </div>","O_4_4_P",""
"","","","","","html-keyboard-response","102","269284","0.0-2.0-6.0-0.0-0.1","49","1","2022-04-21 03:31:21","07fc0bccf7d27b14a45717ad72d6b95a","109.242.61.136","Mozilla/5.0 (Windows NT 10.0; Win64; x64) AppleWebKit/537.36 (KHTML, like Gecko) Chrome/100.0.4896.127 Safari/537.36","WebKit","Chrome","100.0.4896.127","Windows","10.0","60ca1c436511b9fc8ab35615","62562cd9fd8151f6abdbe5c0","6260cfbc4e6f8056f16da511","null","null","","","<p style=""font-size:64px;"">+</p>","O_4_4_P",""
"","","","","","html-keyboard-response","103","270572","0.0-2.0-6.0-0.0-1.1","49","1","2022-04-21 03:31:21","07fc0bccf7d27b14a45717ad72d6b95a","109.242.61.136","Mozilla/5.0 (Windows NT 10.0; Win64; x64) AppleWebKit/537.36 (KHTML, like Gecko) Chrome/100.0.4896.127 Safari/537.36","WebKit","Chrome","100.0.4896.127","Windows","10.0","60ca1c436511b9fc8ab35615","62562cd9fd8151f6abdbe5c0","6260cfbc4e6f8056f16da511","null","null","","","
                        <div class=pink>
                        <div class=""centered"">
                            <p style=""font-size: 24px""><b>52%</b></p>
                        </div>","O_4_4_P",""
"","","","","","html-keyboard-response","104","270986","0.0-2.0-6.0-0.0-0.2","49","1","2022-04-21 03:31:21","07fc0bccf7d27b14a45717ad72d6b95a","109.242.61.136","Mozilla/5.0 (Windows NT 10.0; Win64; x64) AppleWebKit/537.36 (KHTML, like Gecko) Chrome/100.0.4896.127 Safari/537.36","WebKit","Chrome","100.0.4896.127","Windows","10.0","60ca1c436511b9fc8ab35615","62562cd9fd8151f6abdbe5c0","6260cfbc4e6f8056f16da511","null","null","","","<p style=""font-size:64px;"">+</p>","O_4_4_P",""
"","","","","","html-keyboard-response","105","272239","0.0-2.0-6.0-0.0-1.2","49","1","2022-04-21 03:31:21","07fc0bccf7d27b14a45717ad72d6b95a","109.242.61.136","Mozilla/5.0 (Windows NT 10.0; Win64; x64) AppleWebKit/537.36 (KHTML, like Gecko) Chrome/100.0.4896.127 Safari/537.36","WebKit","Chrome","100.0.4896.127","Windows","10.0","60ca1c436511b9fc8ab35615","62562cd9fd8151f6abdbe5c0","6260cfbc4e6f8056f16da511","null","null","","","
                        <div class=orange>
                        <div class=""centered"">
                            <p style=""font-size: 24px""><b>55%</b></p>
                        </div>","O_4_4_P",""
"","","","","","html-keyboard-response","106","272647","0.0-2.0-6.0-0.0-0.3","49","1","2022-04-21 03:31:21","07fc0bccf7d27b14a45717ad72d6b95a","109.242.61.136","Mozilla/5.0 (Windows NT 10.0; Win64; x64) AppleWebKit/537.36 (KHTML, like Gecko) Chrome/100.0.4896.127 Safari/537.36","WebKit","Chrome","100.0.4896.127","Windows","10.0","60ca1c436511b9fc8ab35615","62562cd9fd8151f6abdbe5c0","6260cfbc4e6f8056f16da511","null","null","","","<p style=""font-size:64px;"">+</p>","O_4_4_P",""
"","","","","","html-keyboard-response","107","273912","0.0-2.0-6.0-0.0-1.3","49","1","2022-04-21 03:31:21","07fc0bccf7d27b14a45717ad72d6b95a","109.242.61.136","Mozilla/5.0 (Windows NT 10.0; Win64; x64) AppleWebKit/537.36 (KHTML, like Gecko) Chrome/100.0.4896.127 Safari/537.36","WebKit","Chrome","100.0.4896.127","Windows","10.0","60ca1c436511b9fc8ab35615","62562cd9fd8151f6abdbe5c0","6260cfbc4e6f8056f16da511","null","null","","","
                        <div class=pink>
                        <div class=""centered"">
                            <p style=""font-size: 24px""><b>52%</b></p>
                        </div>","O_4_4_P",""
"","","","","","html-keyboard-response","108","274373","0.0-2.0-6.0-0.0-0.4","49","1","2022-04-21 03:31:21","07fc0bccf7d27b14a45717ad72d6b95a","109.242.61.136","Mozilla/5.0 (Windows NT 10.0; Win64; x64) AppleWebKit/537.36 (KHTML, like Gecko) Chrome/100.0.4896.127 Safari/537.36","WebKit","Chrome","100.0.4896.127","Windows","10.0","60ca1c436511b9fc8ab35615","62562cd9fd8151f6abdbe5c0","6260cfbc4e6f8056f16da511","null","null","","","<p style=""font-size:64px;"">+</p>","O_4_4_P",""
"","","","","","html-keyboard-response","109","275627","0.0-2.0-6.0-0.0-1.4","49","1","2022-04-21 03:31:21","07fc0bccf7d27b14a45717ad72d6b95a","109.242.61.136","Mozilla/5.0 (Windows NT 10.0; Win64; x64) AppleWebKit/537.36 (KHTML, like Gecko) Chrome/100.0.4896.127 Safari/537.36","WebKit","Chrome","100.0.4896.127","Windows","10.0","60ca1c436511b9fc8ab35615","62562cd9fd8151f6abdbe5c0","6260cfbc4e6f8056f16da511","null","null","","","
                        <div class=orange>
                        <div class=""centered"">
                            <p style=""font-size: 24px""><b>54%</b></p>
                        </div>","O_4_4_P",""
"","","","","","html-keyboard-response","110","276030","0.0-2.0-6.0-0.0-0.5","49","1","2022-04-21 03:31:21","07fc0bccf7d27b14a45717ad72d6b95a","109.242.61.136","Mozilla/5.0 (Windows NT 10.0; Win64; x64) AppleWebKit/537.36 (KHTML, like Gecko) Chrome/100.0.4896.127 Safari/537.36","WebKit","Chrome","100.0.4896.127","Windows","10.0","60ca1c436511b9fc8ab35615","62562cd9fd8151f6abdbe5c0","6260cfbc4e6f8056f16da511","null","null","","","<p style=""font-size:64px;"">+</p>","O_4_4_P",""
"","","","","","html-keyboard-response","111","277292","0.0-2.0-6.0-0.0-1.5","49","1","2022-04-21 03:31:21","07fc0bccf7d27b14a45717ad72d6b95a","109.242.61.136","Mozilla/5.0 (Windows NT 10.0; Win64; x64) AppleWebKit/537.36 (KHTML, like Gecko) Chrome/100.0.4896.127 Safari/537.36","WebKit","Chrome","100.0.4896.127","Windows","10.0","60ca1c436511b9fc8ab35615","62562cd9fd8151f6abdbe5c0","6260cfbc4e6f8056f16da511","null","null","","","
                        <div class=pink>
                        <div class=""centered"">
                            <p style=""font-size: 24px""><b>55%</b></p>
                        </div>","O_4_4_P",""
"","","","","","html-keyboard-response","112","277695","0.0-2.0-6.0-1.0-0.0","49","1","2022-04-21 03:31:21","07fc0bccf7d27b14a45717ad72d6b95a","109.242.61.136","Mozilla/5.0 (Windows NT 10.0; Win64; x64) AppleWebKit/537.36 (KHTML, like Gecko) Chrome/100.0.4896.127 Safari/537.36","WebKit","Chrome","100.0.4896.127","Windows","10.0","60ca1c436511b9fc8ab35615","62562cd9fd8151f6abdbe5c0","6260cfbc4e6f8056f16da511","null","null","","","<p style=""font-size:64px;"">+</p>","O_4_4_P",""
"","","","","","html-keyboard-response","113","278948","0.0-2.0-6.0-1.0-1.0","49","1","2022-04-21 03:31:21","07fc0bccf7d27b14a45717ad72d6b95a","109.242.61.136","Mozilla/5.0 (Windows NT 10.0; Win64; x64) AppleWebKit/537.36 (KHTML, like Gecko) Chrome/100.0.4896.127 Safari/537.36","WebKit","Chrome","100.0.4896.127","Windows","10.0","60ca1c436511b9fc8ab35615","62562cd9fd8151f6abdbe5c0","6260cfbc4e6f8056f16da511","null","null","","","
                        <div class=""pink"">
                        <div class=""centered"">
                            <p style=""font-size: 24px""><b>50%</b></p>
                        </div>","O_4_4_P",""
"","","","","","html-slider-response","114","282806","0.0-2.0-6.0-2.0","49","1","2022-04-21 03:31:21","07fc0bccf7d27b14a45717ad72d6b95a","109.242.61.136","Mozilla/5.0 (Windows NT 10.0; Win64; x64) AppleWebKit/537.36 (KHTML, like Gecko) Chrome/100.0.4896.127 Safari/537.36","WebKit","Chrome","100.0.4896.127","Windows","10.0","60ca1c436511b9fc8ab35615","62562cd9fd8151f6abdbe5c0","6260cfbc4e6f8056f16da511","3854.399999976158","4","","","<div style=""width: 500px; height: 100px;""><p>Place your bid for more information.</p></div>","infoBid","0"
"","","","","","html-keyboard-response","115","283210","0.0-2.0-6.0-3.0-0.0","49","1","2022-04-21 03:31:21","07fc0bccf7d27b14a45717ad72d6b95a","109.242.61.136","Mozilla/5.0 (Windows NT 10.0; Win64; x64) AppleWebKit/537.36 (KHTML, like Gecko) Chrome/100.0.4896.127 Safari/537.36","WebKit","Chrome","100.0.4896.127","Windows","10.0","60ca1c436511b9fc8ab35615","62562cd9fd8151f6abdbe5c0","6260cfbc4e6f8056f16da511","null","null","","","<p style=""font-size:64px;"">+</p>","O_4_4_P",""
"","","","","","html-keyboard-response","116","284464","0.0-2.0-6.0-3.0-1.0","49","1","2022-04-21 03:31:21","07fc0bccf7d27b14a45717ad72d6b95a","109.242.61.136","Mozilla/5.0 (Windows NT 10.0; Win64; x64) AppleWebKit/537.36 (KHTML, like Gecko) Chrome/100.0.4896.127 Safari/537.36","WebKit","Chrome","100.0.4896.127","Windows","10.0","60ca1c436511b9fc8ab35615","62562cd9fd8151f6abdbe5c0","6260cfbc4e6f8056f16da511","null","null","","","<div class=orange>
                <div class=""centered"">
                    <p style=""font-size: 24px""><b>51%</b></p>
                </div>","O_4_4_P",""
"","","","","","html-keyboard-response","117","285500","0.0-2.0-6.0-4.0-0.0","49","1","2022-04-21 03:31:21","07fc0bccf7d27b14a45717ad72d6b95a","109.242.61.136","Mozilla/5.0 (Windows NT 10.0; Win64; x64) AppleWebKit/537.36 (KHTML, like Gecko) Chrome/100.0.4896.127 Safari/537.36","WebKit","Chrome","100.0.4896.127","Windows","10.0","60ca1c436511b9fc8ab35615","62562cd9fd8151f6abdbe5c0","6260cfbc4e6f8056f16da511","1032.5","f","","","
                      <div class=""row"">

                          <div class=""column"">
                              <div class=""orange""></div>
                              <div class=""leftChoiceText"">
                                  <p style=""font-size: 32px""><b>F</b></p>
                              </div>
                          </div>

                          <div class=""column"">
                              <div class=""pink""></div>
                              <div class=""rightChoiceText"">
                                  <p style=""font-size: 32px""><b>J</b></p>
                              </div>
                          </div>

                      </div>

                      <div class=""centeredTop"">
                          Which colour do you<br>
                          predict will win?
                      </div>","O_4_4_P",""
"","","","","","html-keyboard-response","118","287003","0.0-2.0-6.0-4.0-1.0","49","1","2022-04-21 03:31:21","07fc0bccf7d27b14a45717ad72d6b95a","109.242.61.136","Mozilla/5.0 (Windows NT 10.0; Win64; x64) AppleWebKit/537.36 (KHTML, like Gecko) Chrome/100.0.4896.127 Safari/537.36","WebKit","Chrome","100.0.4896.127","Windows","10.0","60ca1c436511b9fc8ab35615","62562cd9fd8151f6abdbe5c0","6260cfbc4e6f8056f16da511","null","null","","","<p style=""font-size:64px;"">+</p>","O_4_4_P",""
"","","","","","html-keyboard-response","119","287406","0.0-2.0-7.0-0.0-0.0","49","1","2022-04-21 03:31:21","07fc0bccf7d27b14a45717ad72d6b95a","109.242.61.136","Mozilla/5.0 (Windows NT 10.0; Win64; x64) AppleWebKit/537.36 (KHTML, like Gecko) Chrome/100.0.4896.127 Safari/537.36","WebKit","Chrome","100.0.4896.127","Windows","10.0","60ca1c436511b9fc8ab35615","62562cd9fd8151f6abdbe5c0","6260cfbc4e6f8056f16da511","null","null","","","<p style=""font-size:64px;"">+</p>","P_2_3_O",""
"","","","","","html-keyboard-response","120","288660","0.0-2.0-7.0-0.0-1.0","49","1","2022-04-21 03:31:21","07fc0bccf7d27b14a45717ad72d6b95a","109.242.61.136","Mozilla/5.0 (Windows NT 10.0; Win64; x64) AppleWebKit/537.36 (KHTML, like Gecko) Chrome/100.0.4896.127 Safari/537.36","WebKit","Chrome","100.0.4896.127","Windows","10.0","60ca1c436511b9fc8ab35615","62562cd9fd8151f6abdbe5c0","6260cfbc4e6f8056f16da511","null","null","","","
                        <div class=orange>
                        <div class=""centered"">
                            <p style=""font-size: 24px""><b>54%</b></p>
                        </div>","P_2_3_O",""
"","","","","","html-keyboard-response","121","289063","0.0-2.0-7.0-0.0-0.1","49","1","2022-04-21 03:31:21","07fc0bccf7d27b14a45717ad72d6b95a","109.242.61.136","Mozilla/5.0 (Windows NT 10.0; Win64; x64) AppleWebKit/537.36 (KHTML, like Gecko) Chrome/100.0.4896.127 Safari/537.36","WebKit","Chrome","100.0.4896.127","Windows","10.0","60ca1c436511b9fc8ab35615","62562cd9fd8151f6abdbe5c0","6260cfbc4e6f8056f16da511","null","null","","","<p style=""font-size:64px;"">+</p>","P_2_3_O",""
"","","","","","html-keyboard-response","122","290317","0.0-2.0-7.0-0.0-1.1","49","1","2022-04-21 03:31:21","07fc0bccf7d27b14a45717ad72d6b95a","109.242.61.136","Mozilla/5.0 (Windows NT 10.0; Win64; x64) AppleWebKit/537.36 (KHTML, like Gecko) Chrome/100.0.4896.127 Safari/537.36","WebKit","Chrome","100.0.4896.127","Windows","10.0","60ca1c436511b9fc8ab35615","62562cd9fd8151f6abdbe5c0","6260cfbc4e6f8056f16da511","null","null","","","
                        <div class=pink>
                        <div class=""centered"">
                            <p style=""font-size: 24px""><b>53%</b></p>
                        </div>","P_2_3_O",""
"","","","","","html-keyboard-response","123","290723","0.0-2.0-7.0-0.0-0.2","49","1","2022-04-21 03:31:21","07fc0bccf7d27b14a45717ad72d6b95a","109.242.61.136","Mozilla/5.0 (Windows NT 10.0; Win64; x64) AppleWebKit/537.36 (KHTML, like Gecko) Chrome/100.0.4896.127 Safari/537.36","WebKit","Chrome","100.0.4896.127","Windows","10.0","60ca1c436511b9fc8ab35615","62562cd9fd8151f6abdbe5c0","6260cfbc4e6f8056f16da511","null","null","","","<p style=""font-size:64px;"">+</p>","P_2_3_O",""
"","","","","","html-keyboard-response","124","291977","0.0-2.0-7.0-0.0-1.2","49","1","2022-04-21 03:31:21","07fc0bccf7d27b14a45717ad72d6b95a","109.242.61.136","Mozilla/5.0 (Windows NT 10.0; Win64; x64) AppleWebKit/537.36 (KHTML, like Gecko) Chrome/100.0.4896.127 Safari/537.36","WebKit","Chrome","100.0.4896.127","Windows","10.0","60ca1c436511b9fc8ab35615","62562cd9fd8151f6abdbe5c0","6260cfbc4e6f8056f16da511","null","null","","","
                        <div class=orange>
                        <div class=""centered"">
                            <p style=""font-size: 24px""><b>52%</b></p>
                        </div>","P_2_3_O",""
"","","","","","html-keyboard-response","125","292380","0.0-2.0-7.0-0.0-0.3","49","1","2022-04-21 03:31:21","07fc0bccf7d27b14a45717ad72d6b95a","109.242.61.136","Mozilla/5.0 (Windows NT 10.0; Win64; x64) AppleWebKit/537.36 (KHTML, like Gecko) Chrome/100.0.4896.127 Safari/537.36","WebKit","Chrome","100.0.4896.127","Windows","10.0","60ca1c436511b9fc8ab35615","62562cd9fd8151f6abdbe5c0","6260cfbc4e6f8056f16da511","null","null","","","<p style=""font-size:64px;"">+</p>","P_2_3_O",""
"","","","","","html-keyboard-response","126","293634","0.0-2.0-7.0-0.0-1.3","49","1","2022-04-21 03:31:21","07fc0bccf7d27b14a45717ad72d6b95a","109.242.61.136","Mozilla/5.0 (Windows NT 10.0; Win64; x64) AppleWebKit/537.36 (KHTML, like Gecko) Chrome/100.0.4896.127 Safari/537.36","WebKit","Chrome","100.0.4896.127","Windows","10.0","60ca1c436511b9fc8ab35615","62562cd9fd8151f6abdbe5c0","6260cfbc4e6f8056f16da511","null","null","","","
                        <div class=pink>
                        <div class=""centered"">
                            <p style=""font-size: 24px""><b>54%</b></p>
                        </div>","P_2_3_O",""
"","","","","","html-keyboard-response","127","294039","0.0-2.0-7.0-0.0-0.4","49","1","2022-04-21 03:31:21","07fc0bccf7d27b14a45717ad72d6b95a","109.242.61.136","Mozilla/5.0 (Windows NT 10.0; Win64; x64) AppleWebKit/537.36 (KHTML, like Gecko) Chrome/100.0.4896.127 Safari/537.36","WebKit","Chrome","100.0.4896.127","Windows","10.0","60ca1c436511b9fc8ab35615","62562cd9fd8151f6abdbe5c0","6260cfbc4e6f8056f16da511","null","null","","","<p style=""font-size:64px;"">+</p>","P_2_3_O",""
"","","","","","html-keyboard-response","128","295293","0.0-2.0-7.0-0.0-1.4","49","1","2022-04-21 03:31:21","07fc0bccf7d27b14a45717ad72d6b95a","109.242.61.136","Mozilla/5.0 (Windows NT 10.0; Win64; x64) AppleWebKit/537.36 (KHTML, like Gecko) Chrome/100.0.4896.127 Safari/537.36","WebKit","Chrome","100.0.4896.127","Windows","10.0","60ca1c436511b9fc8ab35615","62562cd9fd8151f6abdbe5c0","6260cfbc4e6f8056f16da511","null","null","","","
                        <div class=orange>
                        <div class=""centered"">
                            <p style=""font-size: 24px""><b>52%</b></p>
                        </div>","P_2_3_O",""
"","","","","","html-keyboard-response","129","295696","0.0-2.0-7.0-0.0-0.5","49","1","2022-04-21 03:31:21","07fc0bccf7d27b14a45717ad72d6b95a","109.242.61.136","Mozilla/5.0 (Windows NT 10.0; Win64; x64) AppleWebKit/537.36 (KHTML, like Gecko) Chrome/100.0.4896.127 Safari/537.36","WebKit","Chrome","100.0.4896.127","Windows","10.0","60ca1c436511b9fc8ab35615","62562cd9fd8151f6abdbe5c0","6260cfbc4e6f8056f16da511","null","null","","","<p style=""font-size:64px;"">+</p>","P_2_3_O",""
"","","","","","html-keyboard-response","130","296950","0.0-2.0-7.0-0.0-1.5","49","1","2022-04-21 03:31:21","07fc0bccf7d27b14a45717ad72d6b95a","109.242.61.136","Mozilla/5.0 (Windows NT 10.0; Win64; x64) AppleWebKit/537.36 (KHTML, like Gecko) Chrome/100.0.4896.127 Safari/537.36","WebKit","Chrome","100.0.4896.127","Windows","10.0","60ca1c436511b9fc8ab35615","62562cd9fd8151f6abdbe5c0","6260cfbc4e6f8056f16da511","null","null","","","
                        <div class=pink>
                        <div class=""centered"">
                            <p style=""font-size: 24px""><b>53%</b></p>
                        </div>","P_2_3_O",""
"","","","","","html-keyboard-response","131","297354","0.0-2.0-7.0-1.0-0.0","49","1","2022-04-21 03:31:21","07fc0bccf7d27b14a45717ad72d6b95a","109.242.61.136","Mozilla/5.0 (Windows NT 10.0; Win64; x64) AppleWebKit/537.36 (KHTML, like Gecko) Chrome/100.0.4896.127 Safari/537.36","WebKit","Chrome","100.0.4896.127","Windows","10.0","60ca1c436511b9fc8ab35615","62562cd9fd8151f6abdbe5c0","6260cfbc4e6f8056f16da511","null","null","","","<p style=""font-size:64px;"">+</p>","P_2_3_O",""
"","","","","","html-keyboard-response","132","298608","0.0-2.0-7.0-1.0-1.0","49","1","2022-04-21 03:31:21","07fc0bccf7d27b14a45717ad72d6b95a","109.242.61.136","Mozilla/5.0 (Windows NT 10.0; Win64; x64) AppleWebKit/537.36 (KHTML, like Gecko) Chrome/100.0.4896.127 Safari/537.36","WebKit","Chrome","100.0.4896.127","Windows","10.0","60ca1c436511b9fc8ab35615","62562cd9fd8151f6abdbe5c0","6260cfbc4e6f8056f16da511","null","null","","","
                        <div class=""orange"">
                        <div class=""centered"">
                            <p style=""font-size: 24px""><b>50%</b></p>
                        </div>","P_2_3_O",""
"","","","","","html-slider-response","133","302174","0.0-2.0-7.0-2.0","49","1","2022-04-21 03:31:21","07fc0bccf7d27b14a45717ad72d6b95a","109.242.61.136","Mozilla/5.0 (Windows NT 10.0; Win64; x64) AppleWebKit/537.36 (KHTML, like Gecko) Chrome/100.0.4896.127 Safari/537.36","WebKit","Chrome","100.0.4896.127","Windows","10.0","60ca1c436511b9fc8ab35615","62562cd9fd8151f6abdbe5c0","6260cfbc4e6f8056f16da511","3561.900000035763","2","","","<div style=""width: 500px; height: 100px;""><p>Place your bid for more information.</p></div>","infoBid","0"
"","","","","","html-keyboard-response","134","302577","0.0-2.0-7.0-3.0-0.0","49","1","2022-04-21 03:31:21","07fc0bccf7d27b14a45717ad72d6b95a","109.242.61.136","Mozilla/5.0 (Windows NT 10.0; Win64; x64) AppleWebKit/537.36 (KHTML, like Gecko) Chrome/100.0.4896.127 Safari/537.36","WebKit","Chrome","100.0.4896.127","Windows","10.0","60ca1c436511b9fc8ab35615","62562cd9fd8151f6abdbe5c0","6260cfbc4e6f8056f16da511","null","null","","","<p style=""font-size:64px;"">+</p>","P_2_3_O",""
"","","","","","html-keyboard-response","135","303832","0.0-2.0-7.0-3.0-1.0","49","1","2022-04-21 03:31:21","07fc0bccf7d27b14a45717ad72d6b95a","109.242.61.136","Mozilla/5.0 (Windows NT 10.0; Win64; x64) AppleWebKit/537.36 (KHTML, like Gecko) Chrome/100.0.4896.127 Safari/537.36","WebKit","Chrome","100.0.4896.127","Windows","10.0","60ca1c436511b9fc8ab35615","62562cd9fd8151f6abdbe5c0","6260cfbc4e6f8056f16da511","null","null","","","<div class=""grey"">
                <div class=""centered"">
                    <p style=""font-size: 24px""><b>???</b></p>
                </div>","P_2_3_O",""
"","","","","","html-keyboard-response","136","304779","0.0-2.0-7.0-4.0-0.0","49","1","2022-04-21 03:31:21","07fc0bccf7d27b14a45717ad72d6b95a","109.242.61.136","Mozilla/5.0 (Windows NT 10.0; Win64; x64) AppleWebKit/537.36 (KHTML, like Gecko) Chrome/100.0.4896.127 Safari/537.36","WebKit","Chrome","100.0.4896.127","Windows","10.0","60ca1c436511b9fc8ab35615","62562cd9fd8151f6abdbe5c0","6260cfbc4e6f8056f16da511","942.8000000119209","j","","","
                      <div class=""row"">

                          <div class=""column"">
                              <div class=""orange""></div>
                              <div class=""leftChoiceText"">
                                  <p style=""font-size: 32px""><b>F</b></p>
                              </div>
                          </div>

                          <div class=""column"">
                              <div class=""pink""></div>
                              <div class=""rightChoiceText"">
                                  <p style=""font-size: 32px""><b>J</b></p>
                              </div>
                          </div>

                      </div>

                      <div class=""centeredTop"">
                          Which colour do you<br>
                          predict will win?
                      </div>","P_2_3_O",""
"","","","","","html-keyboard-response","137","306283","0.0-2.0-7.0-4.0-1.0","49","1","2022-04-21 03:31:21","07fc0bccf7d27b14a45717ad72d6b95a","109.242.61.136","Mozilla/5.0 (Windows NT 10.0; Win64; x64) AppleWebKit/537.36 (KHTML, like Gecko) Chrome/100.0.4896.127 Safari/537.36","WebKit","Chrome","100.0.4896.127","Windows","10.0","60ca1c436511b9fc8ab35615","62562cd9fd8151f6abdbe5c0","6260cfbc4e6f8056f16da511","null","null","","","<p style=""font-size:64px;"">+</p>","P_2_3_O",""
"","","","","","html-keyboard-response","138","306687","0.0-2.0-8.0-0.0-0.0","49","1","2022-04-21 03:31:21","07fc0bccf7d27b14a45717ad72d6b95a","109.242.61.136","Mozilla/5.0 (Windows NT 10.0; Win64; x64) AppleWebKit/537.36 (KHTML, like Gecko) Chrome/100.0.4896.127 Safari/537.36","WebKit","Chrome","100.0.4896.127","Windows","10.0","60ca1c436511b9fc8ab35615","62562cd9fd8151f6abdbe5c0","6260cfbc4e6f8056f16da511","null","null","","","<p style=""font-size:64px;"">+</p>","O_6_4_P",""
"","","","","","html-keyboard-response","139","307941","0.0-2.0-8.0-0.0-1.0","49","1","2022-04-21 03:31:21","07fc0bccf7d27b14a45717ad72d6b95a","109.242.61.136","Mozilla/5.0 (Windows NT 10.0; Win64; x64) AppleWebKit/537.36 (KHTML, like Gecko) Chrome/100.0.4896.127 Safari/537.36","WebKit","Chrome","100.0.4896.127","Windows","10.0","60ca1c436511b9fc8ab35615","62562cd9fd8151f6abdbe5c0","6260cfbc4e6f8056f16da511","null","null","","","
                        <div class=orange>
                        <div class=""centered"">
                            <p style=""font-size: 24px""><b>54%</b></p>
                        </div>","O_6_4_P",""
"","","","","","html-keyboard-response","140","308344","0.0-2.0-8.0-0.0-0.1","49","1","2022-04-21 03:31:21","07fc0bccf7d27b14a45717ad72d6b95a","109.242.61.136","Mozilla/5.0 (Windows NT 10.0; Win64; x64) AppleWebKit/537.36 (KHTML, like Gecko) Chrome/100.0.4896.127 Safari/537.36","WebKit","Chrome","100.0.4896.127","Windows","10.0","60ca1c436511b9fc8ab35615","62562cd9fd8151f6abdbe5c0","6260cfbc4e6f8056f16da511","null","null","","","<p style=""font-size:64px;"">+</p>","O_6_4_P",""
"","","","","","html-keyboard-response","141","309599","0.0-2.0-8.0-0.0-1.1","49","1","2022-04-21 03:31:21","07fc0bccf7d27b14a45717ad72d6b95a","109.242.61.136","Mozilla/5.0 (Windows NT 10.0; Win64; x64) AppleWebKit/537.36 (KHTML, like Gecko) Chrome/100.0.4896.127 Safari/537.36","WebKit","Chrome","100.0.4896.127","Windows","10.0","60ca1c436511b9fc8ab35615","62562cd9fd8151f6abdbe5c0","6260cfbc4e6f8056f16da511","null","null","","","
                        <div class=pink>
                        <div class=""centered"">
                            <p style=""font-size: 24px""><b>52%</b></p>
                        </div>","O_6_4_P",""
"","","","","","html-keyboard-response","142","310003","0.0-2.0-8.0-0.0-0.2","49","1","2022-04-21 03:31:21","07fc0bccf7d27b14a45717ad72d6b95a","109.242.61.136","Mozilla/5.0 (Windows NT 10.0; Win64; x64) AppleWebKit/537.36 (KHTML, like Gecko) Chrome/100.0.4896.127 Safari/537.36","WebKit","Chrome","100.0.4896.127","Windows","10.0","60ca1c436511b9fc8ab35615","62562cd9fd8151f6abdbe5c0","6260cfbc4e6f8056f16da511","null","null","","","<p style=""font-size:64px;"">+</p>","O_6_4_P",""
"","","","","","html-keyboard-response","143","311259","0.0-2.0-8.0-0.0-1.2","49","1","2022-04-21 03:31:21","07fc0bccf7d27b14a45717ad72d6b95a","109.242.61.136","Mozilla/5.0 (Windows NT 10.0; Win64; x64) AppleWebKit/537.36 (KHTML, like Gecko) Chrome/100.0.4896.127 Safari/537.36","WebKit","Chrome","100.0.4896.127","Windows","10.0","60ca1c436511b9fc8ab35615","62562cd9fd8151f6abdbe5c0","6260cfbc4e6f8056f16da511","null","null","","","
                        <div class=pink>
                        <div class=""centered"">
                            <p style=""font-size: 24px""><b>53%</b></p>
                        </div>","O_6_4_P",""
"","","","","","html-keyboard-response","144","311663","0.0-2.0-8.0-0.0-0.3","49","1","2022-04-21 03:31:21","07fc0bccf7d27b14a45717ad72d6b95a","109.242.61.136","Mozilla/5.0 (Windows NT 10.0; Win64; x64) AppleWebKit/537.36 (KHTML, like Gecko) Chrome/100.0.4896.127 Safari/537.36","WebKit","Chrome","100.0.4896.127","Windows","10.0","60ca1c436511b9fc8ab35615","62562cd9fd8151f6abdbe5c0","6260cfbc4e6f8056f16da511","null","null","","","<p style=""font-size:64px;"">+</p>","O_6_4_P",""
"","","","","","html-keyboard-response","145","312917","0.0-2.0-8.0-0.0-1.3","49","1","2022-04-21 03:31:21","07fc0bccf7d27b14a45717ad72d6b95a","109.242.61.136","Mozilla/5.0 (Windows NT 10.0; Win64; x64) AppleWebKit/537.36 (KHTML, like Gecko) Chrome/100.0.4896.127 Safari/537.36","WebKit","Chrome","100.0.4896.127","Windows","10.0","60ca1c436511b9fc8ab35615","62562cd9fd8151f6abdbe5c0","6260cfbc4e6f8056f16da511","null","null","","","
                        <div class=orange>
                        <div class=""centered"">
                            <p style=""font-size: 24px""><b>55%</b></p>
                        </div>","O_6_4_P",""
"","","","","","html-keyboard-response","146","313321","0.0-2.0-8.0-0.0-0.4","49","1","2022-04-21 03:31:21","07fc0bccf7d27b14a45717ad72d6b95a","109.242.61.136","Mozilla/5.0 (Windows NT 10.0; Win64; x64) AppleWebKit/537.36 (KHTML, like Gecko) Chrome/100.0.4896.127 Safari/537.36","WebKit","Chrome","100.0.4896.127","Windows","10.0","60ca1c436511b9fc8ab35615","62562cd9fd8151f6abdbe5c0","6260cfbc4e6f8056f16da511","null","null","","","<p style=""font-size:64px;"">+</p>","O_6_4_P",""
"","","","","","html-keyboard-response","147","314575","0.0-2.0-8.0-0.0-1.4","49","1","2022-04-21 03:31:21","07fc0bccf7d27b14a45717ad72d6b95a","109.242.61.136","Mozilla/5.0 (Windows NT 10.0; Win64; x64) AppleWebKit/537.36 (KHTML, like Gecko) Chrome/100.0.4896.127 Safari/537.36","WebKit","Chrome","100.0.4896.127","Windows","10.0","60ca1c436511b9fc8ab35615","62562cd9fd8151f6abdbe5c0","6260cfbc4e6f8056f16da511","null","null","","","
                        <div class=orange>
                        <div class=""centered"">
                            <p style=""font-size: 24px""><b>54%</b></p>
                        </div>","O_6_4_P",""
"","","","","","html-keyboard-response","148","314979","0.0-2.0-8.0-0.0-0.5","49","1","2022-04-21 03:31:21","07fc0bccf7d27b14a45717ad72d6b95a","109.242.61.136","Mozilla/5.0 (Windows NT 10.0; Win64; x64) AppleWebKit/537.36 (KHTML, like Gecko) Chrome/100.0.4896.127 Safari/537.36","WebKit","Chrome","100.0.4896.127","Windows","10.0","60ca1c436511b9fc8ab35615","62562cd9fd8151f6abdbe5c0","6260cfbc4e6f8056f16da511","null","null","","","<p style=""font-size:64px;"">+</p>","O_6_4_P",""
"","","","","","html-keyboard-response","149","316233","0.0-2.0-8.0-0.0-1.5","49","1","2022-04-21 03:31:21","07fc0bccf7d27b14a45717ad72d6b95a","109.242.61.136","Mozilla/5.0 (Windows NT 10.0; Win64; x64) AppleWebKit/537.36 (KHTML, like Gecko) Chrome/100.0.4896.127 Safari/537.36","WebKit","Chrome","100.0.4896.127","Windows","10.0","60ca1c436511b9fc8ab35615","62562cd9fd8151f6abdbe5c0","6260cfbc4e6f8056f16da511","null","null","","","
                        <div class=pink>
                        <div class=""centered"">
                            <p style=""font-size: 24px""><b>52%</b></p>
                        </div>","O_6_4_P",""
"","","","","","html-keyboard-response","150","316637","0.0-2.0-8.0-1.0-0.0","49","1","2022-04-21 03:31:21","07fc0bccf7d27b14a45717ad72d6b95a","109.242.61.136","Mozilla/5.0 (Windows NT 10.0; Win64; x64) AppleWebKit/537.36 (KHTML, like Gecko) Chrome/100.0.4896.127 Safari/537.36","WebKit","Chrome","100.0.4896.127","Windows","10.0","60ca1c436511b9fc8ab35615","62562cd9fd8151f6abdbe5c0","6260cfbc4e6f8056f16da511","null","null","","","<p style=""font-size:64px;"">+</p>","O_6_4_P",""
"","","","","","html-keyboard-response","151","317891","0.0-2.0-8.0-1.0-1.0","49","1","2022-04-21 03:31:21","07fc0bccf7d27b14a45717ad72d6b95a","109.242.61.136","Mozilla/5.0 (Windows NT 10.0; Win64; x64) AppleWebKit/537.36 (KHTML, like Gecko) Chrome/100.0.4896.127 Safari/537.36","WebKit","Chrome","100.0.4896.127","Windows","10.0","60ca1c436511b9fc8ab35615","62562cd9fd8151f6abdbe5c0","6260cfbc4e6f8056f16da511","null","null","","","
                        <div class=""pink"">
                        <div class=""centered"">
                            <p style=""font-size: 24px""><b>50%</b></p>
                        </div>","O_6_4_P",""
"","","","","","html-slider-response","152","319758","0.0-2.0-8.0-2.0","49","1","2022-04-21 03:31:21","07fc0bccf7d27b14a45717ad72d6b95a","109.242.61.136","Mozilla/5.0 (Windows NT 10.0; Win64; x64) AppleWebKit/537.36 (KHTML, like Gecko) Chrome/100.0.4896.127 Safari/537.36","WebKit","Chrome","100.0.4896.127","Windows","10.0","60ca1c436511b9fc8ab35615","62562cd9fd8151f6abdbe5c0","6260cfbc4e6f8056f16da511","1863.800000011921","0","","","<div style=""width: 500px; height: 100px;""><p>Place your bid for more information.</p></div>","infoBid","0"
"","","","","","html-keyboard-response","153","320162","0.0-2.0-8.0-3.0-0.0","49","1","2022-04-21 03:31:21","07fc0bccf7d27b14a45717ad72d6b95a","109.242.61.136","Mozilla/5.0 (Windows NT 10.0; Win64; x64) AppleWebKit/537.36 (KHTML, like Gecko) Chrome/100.0.4896.127 Safari/537.36","WebKit","Chrome","100.0.4896.127","Windows","10.0","60ca1c436511b9fc8ab35615","62562cd9fd8151f6abdbe5c0","6260cfbc4e6f8056f16da511","null","null","","","<p style=""font-size:64px;"">+</p>","O_6_4_P",""
"","","","","","html-keyboard-response","154","321416","0.0-2.0-8.0-3.0-1.0","49","1","2022-04-21 03:31:21","07fc0bccf7d27b14a45717ad72d6b95a","109.242.61.136","Mozilla/5.0 (Windows NT 10.0; Win64; x64) AppleWebKit/537.36 (KHTML, like Gecko) Chrome/100.0.4896.127 Safari/537.36","WebKit","Chrome","100.0.4896.127","Windows","10.0","60ca1c436511b9fc8ab35615","62562cd9fd8151f6abdbe5c0","6260cfbc4e6f8056f16da511","null","null","","","<div class=""grey"">
                <div class=""centered"">
                    <p style=""font-size: 24px""><b>???</b></p>
                </div>","O_6_4_P",""
"","","","","","html-keyboard-response","155","322168","0.0-2.0-8.0-4.0-0.0","49","1","2022-04-21 03:31:21","07fc0bccf7d27b14a45717ad72d6b95a","109.242.61.136","Mozilla/5.0 (Windows NT 10.0; Win64; x64) AppleWebKit/537.36 (KHTML, like Gecko) Chrome/100.0.4896.127 Safari/537.36","WebKit","Chrome","100.0.4896.127","Windows","10.0","60ca1c436511b9fc8ab35615","62562cd9fd8151f6abdbe5c0","6260cfbc4e6f8056f16da511","747.9000000357628","f","","","
                      <div class=""row"">

                          <div class=""column"">
                              <div class=""orange""></div>
                              <div class=""leftChoiceText"">
                                  <p style=""font-size: 32px""><b>F</b></p>
                              </div>
                          </div>

                          <div class=""column"">
                              <div class=""pink""></div>
                              <div class=""rightChoiceText"">
                                  <p style=""font-size: 32px""><b>J</b></p>
                              </div>
                          </div>

                      </div>

                      <div class=""centeredTop"">
                          Which colour do you<br>
                          predict will win?
                      </div>","O_6_4_P",""
"","","","","","html-keyboard-response","156","323672","0.0-2.0-8.0-4.0-1.0","49","1","2022-04-21 03:31:21","07fc0bccf7d27b14a45717ad72d6b95a","109.242.61.136","Mozilla/5.0 (Windows NT 10.0; Win64; x64) AppleWebKit/537.36 (KHTML, like Gecko) Chrome/100.0.4896.127 Safari/537.36","WebKit","Chrome","100.0.4896.127","Windows","10.0","60ca1c436511b9fc8ab35615","62562cd9fd8151f6abdbe5c0","6260cfbc4e6f8056f16da511","null","null","","","<p style=""font-size:64px;"">+</p>","O_6_4_P",""
"","","","","","html-keyboard-response","157","324076","0.0-2.0-9.0-0.0-0.0","49","1","2022-04-21 03:31:21","07fc0bccf7d27b14a45717ad72d6b95a","109.242.61.136","Mozilla/5.0 (Windows NT 10.0; Win64; x64) AppleWebKit/537.36 (KHTML, like Gecko) Chrome/100.0.4896.127 Safari/537.36","WebKit","Chrome","100.0.4896.127","Windows","10.0","60ca1c436511b9fc8ab35615","62562cd9fd8151f6abdbe5c0","6260cfbc4e6f8056f16da511","null","null","","","<p style=""font-size:64px;"">+</p>","Z_6_P",""
"","","","","","html-keyboard-response","158","325330","0.0-2.0-9.0-0.0-1.0","49","1","2022-04-21 03:31:21","07fc0bccf7d27b14a45717ad72d6b95a","109.242.61.136","Mozilla/5.0 (Windows NT 10.0; Win64; x64) AppleWebKit/537.36 (KHTML, like Gecko) Chrome/100.0.4896.127 Safari/537.36","WebKit","Chrome","100.0.4896.127","Windows","10.0","60ca1c436511b9fc8ab35615","62562cd9fd8151f6abdbe5c0","6260cfbc4e6f8056f16da511","null","null","","","
                        <div class=orange>
                        <div class=""centered"">
                            <p style=""font-size: 24px""><b>55%</b></p>
                        </div>","Z_6_P",""
"","","","","","html-keyboard-response","159","325734","0.0-2.0-9.0-0.0-0.1","49","1","2022-04-21 03:31:21","07fc0bccf7d27b14a45717ad72d6b95a","109.242.61.136","Mozilla/5.0 (Windows NT 10.0; Win64; x64) AppleWebKit/537.36 (KHTML, like Gecko) Chrome/100.0.4896.127 Safari/537.36","WebKit","Chrome","100.0.4896.127","Windows","10.0","60ca1c436511b9fc8ab35615","62562cd9fd8151f6abdbe5c0","6260cfbc4e6f8056f16da511","null","null","","","<p style=""font-size:64px;"">+</p>","Z_6_P",""
"","","","","","html-keyboard-response","160","326989","0.0-2.0-9.0-0.0-1.1","49","1","2022-04-21 03:31:21","07fc0bccf7d27b14a45717ad72d6b95a","109.242.61.136","Mozilla/5.0 (Windows NT 10.0; Win64; x64) AppleWebKit/537.36 (KHTML, like Gecko) Chrome/100.0.4896.127 Safari/537.36","WebKit","Chrome","100.0.4896.127","Windows","10.0","60ca1c436511b9fc8ab35615","62562cd9fd8151f6abdbe5c0","6260cfbc4e6f8056f16da511","null","null","","","
                        <div class=orange>
                        <div class=""centered"">
                            <p style=""font-size: 24px""><b>55%</b></p>
                        </div>","Z_6_P",""
"","","","","","html-keyboard-response","161","327395","0.0-2.0-9.0-0.0-0.2","49","1","2022-04-21 03:31:21","07fc0bccf7d27b14a45717ad72d6b95a","109.242.61.136","Mozilla/5.0 (Windows NT 10.0; Win64; x64) AppleWebKit/537.36 (KHTML, like Gecko) Chrome/100.0.4896.127 Safari/537.36","WebKit","Chrome","100.0.4896.127","Windows","10.0","60ca1c436511b9fc8ab35615","62562cd9fd8151f6abdbe5c0","6260cfbc4e6f8056f16da511","null","null","","","<p style=""font-size:64px;"">+</p>","Z_6_P",""
"","","","","","html-keyboard-response","162","328649","0.0-2.0-9.0-0.0-1.2","49","1","2022-04-21 03:31:21","07fc0bccf7d27b14a45717ad72d6b95a","109.242.61.136","Mozilla/5.0 (Windows NT 10.0; Win64; x64) AppleWebKit/537.36 (KHTML, like Gecko) Chrome/100.0.4896.127 Safari/537.36","WebKit","Chrome","100.0.4896.127","Windows","10.0","60ca1c436511b9fc8ab35615","62562cd9fd8151f6abdbe5c0","6260cfbc4e6f8056f16da511","null","null","","","
                        <div class=pink>
                        <div class=""centered"">
                            <p style=""font-size: 24px""><b>55%</b></p>
                        </div>","Z_6_P",""
"","","","","","html-keyboard-response","163","329053","0.0-2.0-9.0-0.0-0.3","49","1","2022-04-21 03:31:21","07fc0bccf7d27b14a45717ad72d6b95a","109.242.61.136","Mozilla/5.0 (Windows NT 10.0; Win64; x64) AppleWebKit/537.36 (KHTML, like Gecko) Chrome/100.0.4896.127 Safari/537.36","WebKit","Chrome","100.0.4896.127","Windows","10.0","60ca1c436511b9fc8ab35615","62562cd9fd8151f6abdbe5c0","6260cfbc4e6f8056f16da511","null","null","","","<p style=""font-size:64px;"">+</p>","Z_6_P",""
"","","","","","html-keyboard-response","164","330307","0.0-2.0-9.0-0.0-1.3","49","1","2022-04-21 03:31:21","07fc0bccf7d27b14a45717ad72d6b95a","109.242.61.136","Mozilla/5.0 (Windows NT 10.0; Win64; x64) AppleWebKit/537.36 (KHTML, like Gecko) Chrome/100.0.4896.127 Safari/537.36","WebKit","Chrome","100.0.4896.127","Windows","10.0","60ca1c436511b9fc8ab35615","62562cd9fd8151f6abdbe5c0","6260cfbc4e6f8056f16da511","null","null","","","
                        <div class=orange>
                        <div class=""centered"">
                            <p style=""font-size: 24px""><b>53%</b></p>
                        </div>","Z_6_P",""
"","","","","","html-keyboard-response","165","330712","0.0-2.0-9.0-0.0-0.4","49","1","2022-04-21 03:31:21","07fc0bccf7d27b14a45717ad72d6b95a","109.242.61.136","Mozilla/5.0 (Windows NT 10.0; Win64; x64) AppleWebKit/537.36 (KHTML, like Gecko) Chrome/100.0.4896.127 Safari/537.36","WebKit","Chrome","100.0.4896.127","Windows","10.0","60ca1c436511b9fc8ab35615","62562cd9fd8151f6abdbe5c0","6260cfbc4e6f8056f16da511","null","null","","","<p style=""font-size:64px;"">+</p>","Z_6_P",""
"","","","","","html-keyboard-response","166","331967","0.0-2.0-9.0-0.0-1.4","49","1","2022-04-21 03:31:21","07fc0bccf7d27b14a45717ad72d6b95a","109.242.61.136","Mozilla/5.0 (Windows NT 10.0; Win64; x64) AppleWebKit/537.36 (KHTML, like Gecko) Chrome/100.0.4896.127 Safari/537.36","WebKit","Chrome","100.0.4896.127","Windows","10.0","60ca1c436511b9fc8ab35615","62562cd9fd8151f6abdbe5c0","6260cfbc4e6f8056f16da511","null","null","","","
                        <div class=pink>
                        <div class=""centered"">
                            <p style=""font-size: 24px""><b>54%</b></p>
                        </div>","Z_6_P",""
"","","","","","html-keyboard-response","167","332372","0.0-2.0-9.0-0.0-0.5","49","1","2022-04-21 03:31:21","07fc0bccf7d27b14a45717ad72d6b95a","109.242.61.136","Mozilla/5.0 (Windows NT 10.0; Win64; x64) AppleWebKit/537.36 (KHTML, like Gecko) Chrome/100.0.4896.127 Safari/537.36","WebKit","Chrome","100.0.4896.127","Windows","10.0","60ca1c436511b9fc8ab35615","62562cd9fd8151f6abdbe5c0","6260cfbc4e6f8056f16da511","null","null","","","<p style=""font-size:64px;"">+</p>","Z_6_P",""
