"success","timeout","failed_images","failed_audio","failed_video","trial_type","trial_index","time_elapsed","internal_node_id","run_id","condition","recorded_at","source_code_version","ip","user_agent","device","browser","browser_version","platform","platform_version","rt","response","question_order","view_history","stimulus","trial_name","slider_start"
"true","false","[]","[]","[]","preload","0","92","0.0-0.0","34","1","2022-04-04 11:24:16","c79472ad15d8b617a4d57d5bf56a810f","183.88.75.194","Mozilla/5.0 (Windows NT 10.0; Win64; x64) AppleWebKit/537.36 (KHTML, like Gecko) Chrome/100.0.4896.60 Safari/537.36","WebKit","Chrome","100.0.4896.60","Windows","10.0","","","","","","",""
"","","","","","survey-multi-choice","1","2446","0.0-1.0-0.0","34","1","2022-04-04 11:24:16","c79472ad15d8b617a4d57d5bf56a810f","183.88.75.194","Mozilla/5.0 (Windows NT 10.0; Win64; x64) AppleWebKit/537.36 (KHTML, like Gecko) Chrome/100.0.4896.60 Safari/537.36","WebKit","Chrome","100.0.4896.60","Windows","10.0","2350.2000000029802","{""Gender"":""Female""}","[0]","","","",""
"","","","","","survey-text","2","4395","0.0-1.0-1.0","34","1","2022-04-04 11:24:16","c79472ad15d8b617a4d57d5bf56a810f","183.88.75.194","Mozilla/5.0 (Windows NT 10.0; Win64; x64) AppleWebKit/537.36 (KHTML, like Gecko) Chrome/100.0.4896.60 Safari/537.36","WebKit","Chrome","100.0.4896.60","Windows","10.0","1945","{""Age"":""21""}","","","","",""
"","","","","","instructions","3","151976","0.0-1.0-2.0","34","1","2022-04-04 11:24:16","c79472ad15d8b617a4d57d5bf56a810f","183.88.75.194","Mozilla/5.0 (Windows NT 10.0; Win64; x64) AppleWebKit/537.36 (KHTML, like Gecko) Chrome/100.0.4896.60 Safari/537.36","WebKit","Chrome","100.0.4896.60","Windows","10.0","147579","","","[{""page_index"":0,""viewing_time"":14156.29999999702},{""page_index"":1,""viewing_time"":16961.70000000298},{""page_index"":2,""viewing_time"":10934.20000000298},{""page_index"":3,""viewing_time"":7765.79999999702},{""page_index"":4,""viewing_time"":8768.20000000298},{""page_index"":5,""viewing_time"":8813.89999999106},{""page_index"":6,""viewing_time"":1305.6000000089407},{""page_index"":5,""viewing_time"":2920.699999988079},{""page_index"":6,""viewing_time"":6532},{""page_index"":7,""viewing_time"":22707.40000000596},{""page_index"":8,""viewing_time"":14564.5},{""page_index"":9,""viewing_time"":7673.70000000298},{""page_index"":10,""viewing_time"":4296.0999999940395},{""page_index"":11,""viewing_time"":8436},{""page_index"":12,""viewing_time"":9458.20000000298},{""page_index"":13,""viewing_time"":2283.7999999970198}]","","",""
"","","","","","html-keyboard-response","4","152380","0.0-2.0-0.0-0.0-0.0","34","1","2022-04-04 11:24:16","c79472ad15d8b617a4d57d5bf56a810f","183.88.75.194","Mozilla/5.0 (Windows NT 10.0; Win64; x64) AppleWebKit/537.36 (KHTML, like Gecko) Chrome/100.0.4896.60 Safari/537.36","WebKit","Chrome","100.0.4896.60","Windows","10.0","null","null","","","<p style=""font-size:64px;"">+</p>","O_2_6_P",""
"","","","","","html-keyboard-response","5","153632","0.0-2.0-0.0-0.0-1.0","34","1","2022-04-04 11:24:16","c79472ad15d8b617a4d57d5bf56a810f","183.88.75.194","Mozilla/5.0 (Windows NT 10.0; Win64; x64) AppleWebKit/537.36 (KHTML, like Gecko) Chrome/100.0.4896.60 Safari/537.36","WebKit","Chrome","100.0.4896.60","Windows","10.0","null","null","","","
                        <div class=pink>
                        <div class=""centered"">
                            <p style=""font-size: 24px""><b>53%</b></p>
                        </div>","O_2_6_P",""
"","","","","","html-keyboard-response","6","154035","0.0-2.0-0.0-0.0-0.1","34","1","2022-04-04 11:24:16","c79472ad15d8b617a4d57d5bf56a810f","183.88.75.194","Mozilla/5.0 (Windows NT 10.0; Win64; x64) AppleWebKit/537.36 (KHTML, like Gecko) Chrome/100.0.4896.60 Safari/537.36","WebKit","Chrome","100.0.4896.60","Windows","10.0","null","null","","","<p style=""font-size:64px;"">+</p>","O_2_6_P",""
"","","","","","html-keyboard-response","7","155287","0.0-2.0-0.0-0.0-1.1","34","1","2022-04-04 11:24:16","c79472ad15d8b617a4d57d5bf56a810f","183.88.75.194","Mozilla/5.0 (Windows NT 10.0; Win64; x64) AppleWebKit/537.36 (KHTML, like Gecko) Chrome/100.0.4896.60 Safari/537.36","WebKit","Chrome","100.0.4896.60","Windows","10.0","null","null","","","
                        <div class=pink>
                        <div class=""centered"">
                            <p style=""font-size: 24px""><b>52%</b></p>
                        </div>","O_2_6_P",""
"","","","","","html-keyboard-response","8","155688","0.0-2.0-0.0-0.0-0.2","34","1","2022-04-04 11:24:16","c79472ad15d8b617a4d57d5bf56a810f","183.88.75.194","Mozilla/5.0 (Windows NT 10.0; Win64; x64) AppleWebKit/537.36 (KHTML, like Gecko) Chrome/100.0.4896.60 Safari/537.36","WebKit","Chrome","100.0.4896.60","Windows","10.0","null","null","","","<p style=""font-size:64px;"">+</p>","O_2_6_P",""
"","","","","","html-keyboard-response","9","156940","0.0-2.0-0.0-0.0-1.2","34","1","2022-04-04 11:24:16","c79472ad15d8b617a4d57d5bf56a810f","183.88.75.194","Mozilla/5.0 (Windows NT 10.0; Win64; x64) AppleWebKit/537.36 (KHTML, like Gecko) Chrome/100.0.4896.60 Safari/537.36","WebKit","Chrome","100.0.4896.60","Windows","10.0","null","null","","","
                        <div class=orange>
                        <div class=""centered"">
                            <p style=""font-size: 24px""><b>51%</b></p>
                        </div>","O_2_6_P",""
"","","","","","html-keyboard-response","10","157341","0.0-2.0-0.0-0.0-0.3","34","1","2022-04-04 11:24:16","c79472ad15d8b617a4d57d5bf56a810f","183.88.75.194","Mozilla/5.0 (Windows NT 10.0; Win64; x64) AppleWebKit/537.36 (KHTML, like Gecko) Chrome/100.0.4896.60 Safari/537.36","WebKit","Chrome","100.0.4896.60","Windows","10.0","null","null","","","<p style=""font-size:64px;"">+</p>","O_2_6_P",""
"","","","","","html-keyboard-response","11","158592","0.0-2.0-0.0-0.0-1.3","34","1","2022-04-04 11:24:16","c79472ad15d8b617a4d57d5bf56a810f","183.88.75.194","Mozilla/5.0 (Windows NT 10.0; Win64; x64) AppleWebKit/537.36 (KHTML, like Gecko) Chrome/100.0.4896.60 Safari/537.36","WebKit","Chrome","100.0.4896.60","Windows","10.0","null","null","","","
                        <div class=orange>
                        <div class=""centered"">
                            <p style=""font-size: 24px""><b>55%</b></p>
                        </div>","O_2_6_P",""
"","","","","","html-keyboard-response","12","158994","0.0-2.0-0.0-0.0-0.4","34","1","2022-04-04 11:24:16","c79472ad15d8b617a4d57d5bf56a810f","183.88.75.194","Mozilla/5.0 (Windows NT 10.0; Win64; x64) AppleWebKit/537.36 (KHTML, like Gecko) Chrome/100.0.4896.60 Safari/537.36","WebKit","Chrome","100.0.4896.60","Windows","10.0","null","null","","","<p style=""font-size:64px;"">+</p>","O_2_6_P",""
"","","","","","html-keyboard-response","13","160246","0.0-2.0-0.0-0.0-1.4","34","1","2022-04-04 11:24:16","c79472ad15d8b617a4d57d5bf56a810f","183.88.75.194","Mozilla/5.0 (Windows NT 10.0; Win64; x64) AppleWebKit/537.36 (KHTML, like Gecko) Chrome/100.0.4896.60 Safari/537.36","WebKit","Chrome","100.0.4896.60","Windows","10.0","null","null","","","
                        <div class=orange>
                        <div class=""centered"">
                            <p style=""font-size: 24px""><b>55%</b></p>
                        </div>","O_2_6_P",""
"","","","","","html-keyboard-response","14","160649","0.0-2.0-0.0-0.0-0.5","34","1","2022-04-04 11:24:16","c79472ad15d8b617a4d57d5bf56a810f","183.88.75.194","Mozilla/5.0 (Windows NT 10.0; Win64; x64) AppleWebKit/537.36 (KHTML, like Gecko) Chrome/100.0.4896.60 Safari/537.36","WebKit","Chrome","100.0.4896.60","Windows","10.0","null","null","","","<p style=""font-size:64px;"">+</p>","O_2_6_P",""
"","","","","","html-keyboard-response","15","161901","0.0-2.0-0.0-0.0-1.5","34","1","2022-04-04 11:24:16","c79472ad15d8b617a4d57d5bf56a810f","183.88.75.194","Mozilla/5.0 (Windows NT 10.0; Win64; x64) AppleWebKit/537.36 (KHTML, like Gecko) Chrome/100.0.4896.60 Safari/537.36","WebKit","Chrome","100.0.4896.60","Windows","10.0","null","null","","","
                        <div class=pink>
                        <div class=""centered"">
                            <p style=""font-size: 24px""><b>54%</b></p>
                        </div>","O_2_6_P",""
"","","","","","html-keyboard-response","16","162303","0.0-2.0-0.0-1.0-0.0","34","1","2022-04-04 11:24:16","c79472ad15d8b617a4d57d5bf56a810f","183.88.75.194","Mozilla/5.0 (Windows NT 10.0; Win64; x64) AppleWebKit/537.36 (KHTML, like Gecko) Chrome/100.0.4896.60 Safari/537.36","WebKit","Chrome","100.0.4896.60","Windows","10.0","null","null","","","<p style=""font-size:64px;"">+</p>","O_2_6_P",""
"","","","","","html-keyboard-response","17","163555","0.0-2.0-0.0-1.0-1.0","34","1","2022-04-04 11:24:16","c79472ad15d8b617a4d57d5bf56a810f","183.88.75.194","Mozilla/5.0 (Windows NT 10.0; Win64; x64) AppleWebKit/537.36 (KHTML, like Gecko) Chrome/100.0.4896.60 Safari/537.36","WebKit","Chrome","100.0.4896.60","Windows","10.0","null","null","","","
                        <div class=""pink"">
                        <div class=""centered"">
                            <p style=""font-size: 24px""><b>50%</b></p>
                        </div>","O_2_6_P",""
"","","","","","html-slider-response","18","171143","0.0-2.0-0.0-2.0","34","1","2022-04-04 11:24:16","c79472ad15d8b617a4d57d5bf56a810f","183.88.75.194","Mozilla/5.0 (Windows NT 10.0; Win64; x64) AppleWebKit/537.36 (KHTML, like Gecko) Chrome/100.0.4896.60 Safari/537.36","WebKit","Chrome","100.0.4896.60","Windows","10.0","7587","17","","","<div style=""width: 500px; height: 100px;""><p>Place your bid for more information.</p></div>","infoBid","11"
"","","","","","html-keyboard-response","19","171546","0.0-2.0-0.0-3.0-0.0","34","1","2022-04-04 11:24:16","c79472ad15d8b617a4d57d5bf56a810f","183.88.75.194","Mozilla/5.0 (Windows NT 10.0; Win64; x64) AppleWebKit/537.36 (KHTML, like Gecko) Chrome/100.0.4896.60 Safari/537.36","WebKit","Chrome","100.0.4896.60","Windows","10.0","null","null","","","<p style=""font-size:64px;"">+</p>","O_2_6_P",""
"","","","","","html-keyboard-response","20","172800","0.0-2.0-0.0-3.0-1.0","34","1","2022-04-04 11:24:16","c79472ad15d8b617a4d57d5bf56a810f","183.88.75.194","Mozilla/5.0 (Windows NT 10.0; Win64; x64) AppleWebKit/537.36 (KHTML, like Gecko) Chrome/100.0.4896.60 Safari/537.36","WebKit","Chrome","100.0.4896.60","Windows","10.0","null","null","","","<div class=""grey"">
                <div class=""centered"">
                    <p style=""font-size: 24px""><b>???</b></p>
                </div>","O_2_6_P",""
"","","","","","html-keyboard-response","21","213055","0.0-2.0-0.0-4.0-0.0","34","1","2022-04-04 11:24:16","c79472ad15d8b617a4d57d5bf56a810f","183.88.75.194","Mozilla/5.0 (Windows NT 10.0; Win64; x64) AppleWebKit/537.36 (KHTML, like Gecko) Chrome/100.0.4896.60 Safari/537.36","WebKit","Chrome","100.0.4896.60","Windows","10.0","40254","f","","","
                      <div class=""row"">

                          <div class=""column"">
                              <div class=""orange""></div>
                              <div class=""leftChoiceText"">
                                  <p style=""font-size: 32px""><b>F</b></p>
                              </div>
                          </div>

                          <div class=""column"">
                              <div class=""pink""></div>
                              <div class=""rightChoiceText"">
                                  <p style=""font-size: 32px""><b>J</b></p>
                              </div>
                          </div>

                      </div>

                      <div class=""centeredTop"">
                          Which colour do you<br>
                          predict will win?
                      </div>","O_2_6_P",""
"","","","","","html-keyboard-response","22","214558","0.0-2.0-0.0-4.0-1.0","34","1","2022-04-04 11:24:16","c79472ad15d8b617a4d57d5bf56a810f","183.88.75.194","Mozilla/5.0 (Windows NT 10.0; Win64; x64) AppleWebKit/537.36 (KHTML, like Gecko) Chrome/100.0.4896.60 Safari/537.36","WebKit","Chrome","100.0.4896.60","Windows","10.0","null","null","","","<p style=""font-size:64px;"">+</p>","O_2_6_P",""
"","","","","","html-keyboard-response","23","214960","0.0-2.0-1.0-0.0-0.0","34","1","2022-04-04 11:24:16","c79472ad15d8b617a4d57d5bf56a810f","183.88.75.194","Mozilla/5.0 (Windows NT 10.0; Win64; x64) AppleWebKit/537.36 (KHTML, like Gecko) Chrome/100.0.4896.60 Safari/537.36","WebKit","Chrome","100.0.4896.60","Windows","10.0","null","null","","","<p style=""font-size:64px;"">+</p>","O_2_6_O",""
"","","","","","html-keyboard-response","24","216227","0.0-2.0-1.0-0.0-1.0","34","1","2022-04-04 11:24:16","c79472ad15d8b617a4d57d5bf56a810f","183.88.75.194","Mozilla/5.0 (Windows NT 10.0; Win64; x64) AppleWebKit/537.36 (KHTML, like Gecko) Chrome/100.0.4896.60 Safari/537.36","WebKit","Chrome","100.0.4896.60","Windows","10.0","null","null","","","
                        <div class=orange>
                        <div class=""centered"">
                            <p style=""font-size: 24px""><b>51%</b></p>
                        </div>","O_2_6_O",""
"","","","","","html-keyboard-response","25","216629","0.0-2.0-1.0-0.0-0.1","34","1","2022-04-04 11:24:16","c79472ad15d8b617a4d57d5bf56a810f","183.88.75.194","Mozilla/5.0 (Windows NT 10.0; Win64; x64) AppleWebKit/537.36 (KHTML, like Gecko) Chrome/100.0.4896.60 Safari/537.36","WebKit","Chrome","100.0.4896.60","Windows","10.0","null","null","","","<p style=""font-size:64px;"">+</p>","O_2_6_O",""
"","","","","","html-keyboard-response","26","217881","0.0-2.0-1.0-0.0-1.1","34","1","2022-04-04 11:24:16","c79472ad15d8b617a4d57d5bf56a810f","183.88.75.194","Mozilla/5.0 (Windows NT 10.0; Win64; x64) AppleWebKit/537.36 (KHTML, like Gecko) Chrome/100.0.4896.60 Safari/537.36","WebKit","Chrome","100.0.4896.60","Windows","10.0","null","null","","","
                        <div class=pink>
                        <div class=""centered"">
                            <p style=""font-size: 24px""><b>54%</b></p>
                        </div>","O_2_6_O",""
"","","","","","html-keyboard-response","27","218283","0.0-2.0-1.0-0.0-0.2","34","1","2022-04-04 11:24:16","c79472ad15d8b617a4d57d5bf56a810f","183.88.75.194","Mozilla/5.0 (Windows NT 10.0; Win64; x64) AppleWebKit/537.36 (KHTML, like Gecko) Chrome/100.0.4896.60 Safari/537.36","WebKit","Chrome","100.0.4896.60","Windows","10.0","null","null","","","<p style=""font-size:64px;"">+</p>","O_2_6_O",""
"","","","","","html-keyboard-response","28","219535","0.0-2.0-1.0-0.0-1.2","34","1","2022-04-04 11:24:16","c79472ad15d8b617a4d57d5bf56a810f","183.88.75.194","Mozilla/5.0 (Windows NT 10.0; Win64; x64) AppleWebKit/537.36 (KHTML, like Gecko) Chrome/100.0.4896.60 Safari/537.36","WebKit","Chrome","100.0.4896.60","Windows","10.0","null","null","","","
                        <div class=orange>
                        <div class=""centered"">
                            <p style=""font-size: 24px""><b>55%</b></p>
                        </div>","O_2_6_O",""
"","","","","","html-keyboard-response","29","219936","0.0-2.0-1.0-0.0-0.3","34","1","2022-04-04 11:24:16","c79472ad15d8b617a4d57d5bf56a810f","183.88.75.194","Mozilla/5.0 (Windows NT 10.0; Win64; x64) AppleWebKit/537.36 (KHTML, like Gecko) Chrome/100.0.4896.60 Safari/537.36","WebKit","Chrome","100.0.4896.60","Windows","10.0","null","null","","","<p style=""font-size:64px;"">+</p>","O_2_6_O",""
"","","","","","html-keyboard-response","30","221189","0.0-2.0-1.0-0.0-1.3","34","1","2022-04-04 11:24:16","c79472ad15d8b617a4d57d5bf56a810f","183.88.75.194","Mozilla/5.0 (Windows NT 10.0; Win64; x64) AppleWebKit/537.36 (KHTML, like Gecko) Chrome/100.0.4896.60 Safari/537.36","WebKit","Chrome","100.0.4896.60","Windows","10.0","null","null","","","
                        <div class=pink>
                        <div class=""centered"">
                            <p style=""font-size: 24px""><b>52%</b></p>
                        </div>","O_2_6_O",""
"","","","","","html-keyboard-response","31","221593","0.0-2.0-1.0-0.0-0.4","34","1","2022-04-04 11:24:16","c79472ad15d8b617a4d57d5bf56a810f","183.88.75.194","Mozilla/5.0 (Windows NT 10.0; Win64; x64) AppleWebKit/537.36 (KHTML, like Gecko) Chrome/100.0.4896.60 Safari/537.36","WebKit","Chrome","100.0.4896.60","Windows","10.0","null","null","","","<p style=""font-size:64px;"">+</p>","O_2_6_O",""
"","","","","","html-keyboard-response","32","222844","0.0-2.0-1.0-0.0-1.4","34","1","2022-04-04 11:24:16","c79472ad15d8b617a4d57d5bf56a810f","183.88.75.194","Mozilla/5.0 (Windows NT 10.0; Win64; x64) AppleWebKit/537.36 (KHTML, like Gecko) Chrome/100.0.4896.60 Safari/537.36","WebKit","Chrome","100.0.4896.60","Windows","10.0","null","null","","","
                        <div class=orange>
                        <div class=""centered"">
                            <p style=""font-size: 24px""><b>55%</b></p>
                        </div>","O_2_6_O",""
"","","","","","html-keyboard-response","33","223246","0.0-2.0-1.0-0.0-0.5","34","1","2022-04-04 11:24:16","c79472ad15d8b617a4d57d5bf56a810f","183.88.75.194","Mozilla/5.0 (Windows NT 10.0; Win64; x64) AppleWebKit/537.36 (KHTML, like Gecko) Chrome/100.0.4896.60 Safari/537.36","WebKit","Chrome","100.0.4896.60","Windows","10.0","null","null","","","<p style=""font-size:64px;"">+</p>","O_2_6_O",""
"","","","","","html-keyboard-response","34","224498","0.0-2.0-1.0-0.0-1.5","34","1","2022-04-04 11:24:16","c79472ad15d8b617a4d57d5bf56a810f","183.88.75.194","Mozilla/5.0 (Windows NT 10.0; Win64; x64) AppleWebKit/537.36 (KHTML, like Gecko) Chrome/100.0.4896.60 Safari/537.36","WebKit","Chrome","100.0.4896.60","Windows","10.0","null","null","","","
                        <div class=pink>
                        <div class=""centered"">
                            <p style=""font-size: 24px""><b>53%</b></p>
                        </div>","O_2_6_O",""
"","","","","","html-keyboard-response","35","224900","0.0-2.0-1.0-1.0-0.0","34","1","2022-04-04 11:24:16","c79472ad15d8b617a4d57d5bf56a810f","183.88.75.194","Mozilla/5.0 (Windows NT 10.0; Win64; x64) AppleWebKit/537.36 (KHTML, like Gecko) Chrome/100.0.4896.60 Safari/537.36","WebKit","Chrome","100.0.4896.60","Windows","10.0","null","null","","","<p style=""font-size:64px;"">+</p>","O_2_6_O",""
"","","","","","html-keyboard-response","36","226152","0.0-2.0-1.0-1.0-1.0","34","1","2022-04-04 11:24:16","c79472ad15d8b617a4d57d5bf56a810f","183.88.75.194","Mozilla/5.0 (Windows NT 10.0; Win64; x64) AppleWebKit/537.36 (KHTML, like Gecko) Chrome/100.0.4896.60 Safari/537.36","WebKit","Chrome","100.0.4896.60","Windows","10.0","null","null","","","
                        <div class=""orange"">
                        <div class=""centered"">
                            <p style=""font-size: 24px""><b>50%</b></p>
                        </div>","O_2_6_O",""
"","","","","","html-slider-response","37","230275","0.0-2.0-1.0-2.0","34","1","2022-04-04 11:24:16","c79472ad15d8b617a4d57d5bf56a810f","183.88.75.194","Mozilla/5.0 (Windows NT 10.0; Win64; x64) AppleWebKit/537.36 (KHTML, like Gecko) Chrome/100.0.4896.60 Safari/537.36","WebKit","Chrome","100.0.4896.60","Windows","10.0","4121.20000000298","29","","","<div style=""width: 500px; height: 100px;""><p>Place your bid for more information.</p></div>","infoBid","43"
"","","","","","html-keyboard-response","38","230679","0.0-2.0-1.0-3.0-0.0","34","1","2022-04-04 11:24:16","c79472ad15d8b617a4d57d5bf56a810f","183.88.75.194","Mozilla/5.0 (Windows NT 10.0; Win64; x64) AppleWebKit/537.36 (KHTML, like Gecko) Chrome/100.0.4896.60 Safari/537.36","WebKit","Chrome","100.0.4896.60","Windows","10.0","null","null","","","<p style=""font-size:64px;"">+</p>","O_2_6_O",""
"","","","","","html-keyboard-response","39","231938","0.0-2.0-1.0-3.0-1.0","34","1","2022-04-04 11:24:16","c79472ad15d8b617a4d57d5bf56a810f","183.88.75.194","Mozilla/5.0 (Windows NT 10.0; Win64; x64) AppleWebKit/537.36 (KHTML, like Gecko) Chrome/100.0.4896.60 Safari/537.36","WebKit","Chrome","100.0.4896.60","Windows","10.0","null","null","","","<div class=pink>
                <div class=""centered"">
                    <p style=""font-size: 24px""><b>51%</b></p>
                </div>","O_2_6_O",""
"","","","","","html-keyboard-response","40","236374","0.0-2.0-1.0-4.0-0.0","34","1","2022-04-04 11:24:16","c79472ad15d8b617a4d57d5bf56a810f","183.88.75.194","Mozilla/5.0 (Windows NT 10.0; Win64; x64) AppleWebKit/537.36 (KHTML, like Gecko) Chrome/100.0.4896.60 Safari/537.36","WebKit","Chrome","100.0.4896.60","Windows","10.0","4434.79999999702","f","","","
                      <div class=""row"">

                          <div class=""column"">
                              <div class=""orange""></div>
                              <div class=""leftChoiceText"">
                                  <p style=""font-size: 32px""><b>F</b></p>
                              </div>
                          </div>

                          <div class=""column"">
                              <div class=""pink""></div>
                              <div class=""rightChoiceText"">
                                  <p style=""font-size: 32px""><b>J</b></p>
                              </div>
                          </div>

                      </div>

                      <div class=""centeredTop"">
                          Which colour do you<br>
                          predict will win?
                      </div>","O_2_6_O",""
"","","","","","html-keyboard-response","41","237875","0.0-2.0-1.0-4.0-1.0","34","1","2022-04-04 11:24:16","c79472ad15d8b617a4d57d5bf56a810f","183.88.75.194","Mozilla/5.0 (Windows NT 10.0; Win64; x64) AppleWebKit/537.36 (KHTML, like Gecko) Chrome/100.0.4896.60 Safari/537.36","WebKit","Chrome","100.0.4896.60","Windows","10.0","null","null","","","<p style=""font-size:64px;"">+</p>","O_2_6_O",""
"","","","","","html-keyboard-response","42","238276","0.0-2.0-2.0-0.0-0.0","34","1","2022-04-04 11:24:16","c79472ad15d8b617a4d57d5bf56a810f","183.88.75.194","Mozilla/5.0 (Windows NT 10.0; Win64; x64) AppleWebKit/537.36 (KHTML, like Gecko) Chrome/100.0.4896.60 Safari/537.36","WebKit","Chrome","100.0.4896.60","Windows","10.0","null","null","","","<p style=""font-size:64px;"">+</p>","O_2_5_P",""
"","","","","","html-keyboard-response","43","239531","0.0-2.0-2.0-0.0-1.0","34","1","2022-04-04 11:24:16","c79472ad15d8b617a4d57d5bf56a810f","183.88.75.194","Mozilla/5.0 (Windows NT 10.0; Win64; x64) AppleWebKit/537.36 (KHTML, like Gecko) Chrome/100.0.4896.60 Safari/537.36","WebKit","Chrome","100.0.4896.60","Windows","10.0","null","null","","","
                        <div class=orange>
                        <div class=""centered"">
                            <p style=""font-size: 24px""><b>53%</b></p>
                        </div>","O_2_5_P",""
"","","","","","html-keyboard-response","44","239932","0.0-2.0-2.0-0.0-0.1","34","1","2022-04-04 11:24:16","c79472ad15d8b617a4d57d5bf56a810f","183.88.75.194","Mozilla/5.0 (Windows NT 10.0; Win64; x64) AppleWebKit/537.36 (KHTML, like Gecko) Chrome/100.0.4896.60 Safari/537.36","WebKit","Chrome","100.0.4896.60","Windows","10.0","null","null","","","<p style=""font-size:64px;"">+</p>","O_2_5_P",""
"","","","","","html-keyboard-response","45","241184","0.0-2.0-2.0-0.0-1.1","34","1","2022-04-04 11:24:16","c79472ad15d8b617a4d57d5bf56a810f","183.88.75.194","Mozilla/5.0 (Windows NT 10.0; Win64; x64) AppleWebKit/537.36 (KHTML, like Gecko) Chrome/100.0.4896.60 Safari/537.36","WebKit","Chrome","100.0.4896.60","Windows","10.0","null","null","","","
                        <div class=orange>
                        <div class=""centered"">
                            <p style=""font-size: 24px""><b>55%</b></p>
                        </div>","O_2_5_P",""
"","","","","","html-keyboard-response","46","241585","0.0-2.0-2.0-0.0-0.2","34","1","2022-04-04 11:24:16","c79472ad15d8b617a4d57d5bf56a810f","183.88.75.194","Mozilla/5.0 (Windows NT 10.0; Win64; x64) AppleWebKit/537.36 (KHTML, like Gecko) Chrome/100.0.4896.60 Safari/537.36","WebKit","Chrome","100.0.4896.60","Windows","10.0","null","null","","","<p style=""font-size:64px;"">+</p>","O_2_5_P",""
"","","","","","html-keyboard-response","47","242836","0.0-2.0-2.0-0.0-1.2","34","1","2022-04-04 11:24:16","c79472ad15d8b617a4d57d5bf56a810f","183.88.75.194","Mozilla/5.0 (Windows NT 10.0; Win64; x64) AppleWebKit/537.36 (KHTML, like Gecko) Chrome/100.0.4896.60 Safari/537.36","WebKit","Chrome","100.0.4896.60","Windows","10.0","null","null","","","
                        <div class=orange>
                        <div class=""centered"">
                            <p style=""font-size: 24px""><b>53%</b></p>
                        </div>","O_2_5_P",""
"","","","","","html-keyboard-response","48","243239","0.0-2.0-2.0-0.0-0.3","34","1","2022-04-04 11:24:16","c79472ad15d8b617a4d57d5bf56a810f","183.88.75.194","Mozilla/5.0 (Windows NT 10.0; Win64; x64) AppleWebKit/537.36 (KHTML, like Gecko) Chrome/100.0.4896.60 Safari/537.36","WebKit","Chrome","100.0.4896.60","Windows","10.0","null","null","","","<p style=""font-size:64px;"">+</p>","O_2_5_P",""
"","","","","","html-keyboard-response","49","244491","0.0-2.0-2.0-0.0-1.3","34","1","2022-04-04 11:24:16","c79472ad15d8b617a4d57d5bf56a810f","183.88.75.194","Mozilla/5.0 (Windows NT 10.0; Win64; x64) AppleWebKit/537.36 (KHTML, like Gecko) Chrome/100.0.4896.60 Safari/537.36","WebKit","Chrome","100.0.4896.60","Windows","10.0","null","null","","","
                        <div class=pink>
                        <div class=""centered"">
                            <p style=""font-size: 24px""><b>52%</b></p>
                        </div>","O_2_5_P",""
"","","","","","html-keyboard-response","50","244892","0.0-2.0-2.0-0.0-0.4","34","1","2022-04-04 11:24:16","c79472ad15d8b617a4d57d5bf56a810f","183.88.75.194","Mozilla/5.0 (Windows NT 10.0; Win64; x64) AppleWebKit/537.36 (KHTML, like Gecko) Chrome/100.0.4896.60 Safari/537.36","WebKit","Chrome","100.0.4896.60","Windows","10.0","null","null","","","<p style=""font-size:64px;"">+</p>","O_2_5_P",""
"","","","","","html-keyboard-response","51","246144","0.0-2.0-2.0-0.0-1.4","34","1","2022-04-04 11:24:16","c79472ad15d8b617a4d57d5bf56a810f","183.88.75.194","Mozilla/5.0 (Windows NT 10.0; Win64; x64) AppleWebKit/537.36 (KHTML, like Gecko) Chrome/100.0.4896.60 Safari/537.36","WebKit","Chrome","100.0.4896.60","Windows","10.0","null","null","","","
                        <div class=pink>
                        <div class=""centered"">
                            <p style=""font-size: 24px""><b>55%</b></p>
                        </div>","O_2_5_P",""
"","","","","","html-keyboard-response","52","246549","0.0-2.0-2.0-0.0-0.5","34","1","2022-04-04 11:24:16","c79472ad15d8b617a4d57d5bf56a810f","183.88.75.194","Mozilla/5.0 (Windows NT 10.0; Win64; x64) AppleWebKit/537.36 (KHTML, like Gecko) Chrome/100.0.4896.60 Safari/537.36","WebKit","Chrome","100.0.4896.60","Windows","10.0","null","null","","","<p style=""font-size:64px;"">+</p>","O_2_5_P",""
"","","","","","html-keyboard-response","53","247804","0.0-2.0-2.0-0.0-1.5","34","1","2022-04-04 11:24:16","c79472ad15d8b617a4d57d5bf56a810f","183.88.75.194","Mozilla/5.0 (Windows NT 10.0; Win64; x64) AppleWebKit/537.36 (KHTML, like Gecko) Chrome/100.0.4896.60 Safari/537.36","WebKit","Chrome","100.0.4896.60","Windows","10.0","null","null","","","
                        <div class=pink>
                        <div class=""centered"">
                            <p style=""font-size: 24px""><b>52%</b></p>
                        </div>","O_2_5_P",""
"","","","","","html-keyboard-response","54","248206","0.0-2.0-2.0-1.0-0.0","34","1","2022-04-04 11:24:16","c79472ad15d8b617a4d57d5bf56a810f","183.88.75.194","Mozilla/5.0 (Windows NT 10.0; Win64; x64) AppleWebKit/537.36 (KHTML, like Gecko) Chrome/100.0.4896.60 Safari/537.36","WebKit","Chrome","100.0.4896.60","Windows","10.0","null","null","","","<p style=""font-size:64px;"">+</p>","O_2_5_P",""
"","","","","","html-keyboard-response","55","249459","0.0-2.0-2.0-1.0-1.0","34","1","2022-04-04 11:24:16","c79472ad15d8b617a4d57d5bf56a810f","183.88.75.194","Mozilla/5.0 (Windows NT 10.0; Win64; x64) AppleWebKit/537.36 (KHTML, like Gecko) Chrome/100.0.4896.60 Safari/537.36","WebKit","Chrome","100.0.4896.60","Windows","10.0","null","null","","","
                        <div class=""pink"">
                        <div class=""centered"">
                            <p style=""font-size: 24px""><b>50%</b></p>
                        </div>","O_2_5_P",""
"","","","","","html-slider-response","56","252107","0.0-2.0-2.0-2.0","34","1","2022-04-04 11:24:16","c79472ad15d8b617a4d57d5bf56a810f","183.88.75.194","Mozilla/5.0 (Windows NT 10.0; Win64; x64) AppleWebKit/537.36 (KHTML, like Gecko) Chrome/100.0.4896.60 Safari/537.36","WebKit","Chrome","100.0.4896.60","Windows","10.0","2647.5","32","","","<div style=""width: 500px; height: 100px;""><p>Place your bid for more information.</p></div>","infoBid","17"
"","","","","","html-keyboard-response","57","252509","0.0-2.0-2.0-3.0-0.0","34","1","2022-04-04 11:24:16","c79472ad15d8b617a4d57d5bf56a810f","183.88.75.194","Mozilla/5.0 (Windows NT 10.0; Win64; x64) AppleWebKit/537.36 (KHTML, like Gecko) Chrome/100.0.4896.60 Safari/537.36","WebKit","Chrome","100.0.4896.60","Windows","10.0","null","null","","","<p style=""font-size:64px;"">+</p>","O_2_5_P",""
"","","","","","html-keyboard-response","58","253760","0.0-2.0-2.0-3.0-1.0","34","1","2022-04-04 11:24:16","c79472ad15d8b617a4d57d5bf56a810f","183.88.75.194","Mozilla/5.0 (Windows NT 10.0; Win64; x64) AppleWebKit/537.36 (KHTML, like Gecko) Chrome/100.0.4896.60 Safari/537.36","WebKit","Chrome","100.0.4896.60","Windows","10.0","null","null","","","<div class=orange>
                <div class=""centered"">
                    <p style=""font-size: 24px""><b>53%</b></p>
                </div>","O_2_5_P",""
"","","","","","html-keyboard-response","59","254935","0.0-2.0-2.0-4.0-0.0","34","1","2022-04-04 11:24:16","c79472ad15d8b617a4d57d5bf56a810f","183.88.75.194","Mozilla/5.0 (Windows NT 10.0; Win64; x64) AppleWebKit/537.36 (KHTML, like Gecko) Chrome/100.0.4896.60 Safari/537.36","WebKit","Chrome","100.0.4896.60","Windows","10.0","1173.7999999970198","j","","","
                      <div class=""row"">

                          <div class=""column"">
                              <div class=""orange""></div>
                              <div class=""leftChoiceText"">
                                  <p style=""font-size: 32px""><b>F</b></p>
                              </div>
                          </div>

                          <div class=""column"">
                              <div class=""pink""></div>
                              <div class=""rightChoiceText"">
                                  <p style=""font-size: 32px""><b>J</b></p>
                              </div>
                          </div>

                      </div>

                      <div class=""centeredTop"">
                          Which colour do you<br>
                          predict will win?
                      </div>","O_2_5_P",""
"","","","","","html-keyboard-response","60","256440","0.0-2.0-2.0-4.0-1.0","34","1","2022-04-04 11:24:16","c79472ad15d8b617a4d57d5bf56a810f","183.88.75.194","Mozilla/5.0 (Windows NT 10.0; Win64; x64) AppleWebKit/537.36 (KHTML, like Gecko) Chrome/100.0.4896.60 Safari/537.36","WebKit","Chrome","100.0.4896.60","Windows","10.0","null","null","","","<p style=""font-size:64px;"">+</p>","O_2_5_P",""
"","","","","","html-keyboard-response","61","256841","0.0-2.0-3.0-0.0-0.0","34","1","2022-04-04 11:24:16","c79472ad15d8b617a4d57d5bf56a810f","183.88.75.194","Mozilla/5.0 (Windows NT 10.0; Win64; x64) AppleWebKit/537.36 (KHTML, like Gecko) Chrome/100.0.4896.60 Safari/537.36","WebKit","Chrome","100.0.4896.60","Windows","10.0","null","null","","","<p style=""font-size:64px;"">+</p>","P_2_3_P",""
"","","","","","html-keyboard-response","62","258094","0.0-2.0-3.0-0.0-1.0","34","1","2022-04-04 11:24:16","c79472ad15d8b617a4d57d5bf56a810f","183.88.75.194","Mozilla/5.0 (Windows NT 10.0; Win64; x64) AppleWebKit/537.36 (KHTML, like Gecko) Chrome/100.0.4896.60 Safari/537.36","WebKit","Chrome","100.0.4896.60","Windows","10.0","null","null","","","
                        <div class=orange>
                        <div class=""centered"">
                            <p style=""font-size: 24px""><b>52%</b></p>
                        </div>","P_2_3_P",""
"","","","","","html-keyboard-response","63","258494","0.0-2.0-3.0-0.0-0.1","34","1","2022-04-04 11:24:16","c79472ad15d8b617a4d57d5bf56a810f","183.88.75.194","Mozilla/5.0 (Windows NT 10.0; Win64; x64) AppleWebKit/537.36 (KHTML, like Gecko) Chrome/100.0.4896.60 Safari/537.36","WebKit","Chrome","100.0.4896.60","Windows","10.0","null","null","","","<p style=""font-size:64px;"">+</p>","P_2_3_P",""
"","","","","","html-keyboard-response","64","259745","0.0-2.0-3.0-0.0-1.1","34","1","2022-04-04 11:24:16","c79472ad15d8b617a4d57d5bf56a810f","183.88.75.194","Mozilla/5.0 (Windows NT 10.0; Win64; x64) AppleWebKit/537.36 (KHTML, like Gecko) Chrome/100.0.4896.60 Safari/537.36","WebKit","Chrome","100.0.4896.60","Windows","10.0","null","null","","","
                        <div class=pink>
                        <div class=""centered"">
                            <p style=""font-size: 24px""><b>54%</b></p>
                        </div>","P_2_3_P",""
"","","","","","html-keyboard-response","65","260146","0.0-2.0-3.0-0.0-0.2","34","1","2022-04-04 11:24:16","c79472ad15d8b617a4d57d5bf56a810f","183.88.75.194","Mozilla/5.0 (Windows NT 10.0; Win64; x64) AppleWebKit/537.36 (KHTML, like Gecko) Chrome/100.0.4896.60 Safari/537.36","WebKit","Chrome","100.0.4896.60","Windows","10.0","null","null","","","<p style=""font-size:64px;"">+</p>","P_2_3_P",""
"","","","","","html-keyboard-response","66","261398","0.0-2.0-3.0-0.0-1.2","34","1","2022-04-04 11:24:16","c79472ad15d8b617a4d57d5bf56a810f","183.88.75.194","Mozilla/5.0 (Windows NT 10.0; Win64; x64) AppleWebKit/537.36 (KHTML, like Gecko) Chrome/100.0.4896.60 Safari/537.36","WebKit","Chrome","100.0.4896.60","Windows","10.0","null","null","","","
                        <div class=orange>
                        <div class=""centered"">
                            <p style=""font-size: 24px""><b>54%</b></p>
                        </div>","P_2_3_P",""
"","","","","","html-keyboard-response","67","261800","0.0-2.0-3.0-0.0-0.3","34","1","2022-04-04 11:24:16","c79472ad15d8b617a4d57d5bf56a810f","183.88.75.194","Mozilla/5.0 (Windows NT 10.0; Win64; x64) AppleWebKit/537.36 (KHTML, like Gecko) Chrome/100.0.4896.60 Safari/537.36","WebKit","Chrome","100.0.4896.60","Windows","10.0","null","null","","","<p style=""font-size:64px;"">+</p>","P_2_3_P",""
"","","","","","html-keyboard-response","68","263051","0.0-2.0-3.0-0.0-1.3","34","1","2022-04-04 11:24:16","c79472ad15d8b617a4d57d5bf56a810f","183.88.75.194","Mozilla/5.0 (Windows NT 10.0; Win64; x64) AppleWebKit/537.36 (KHTML, like Gecko) Chrome/100.0.4896.60 Safari/537.36","WebKit","Chrome","100.0.4896.60","Windows","10.0","null","null","","","
                        <div class=orange>
                        <div class=""centered"">
                            <p style=""font-size: 24px""><b>52%</b></p>
                        </div>","P_2_3_P",""
"","","","","","html-keyboard-response","69","263457","0.0-2.0-3.0-0.0-0.4","34","1","2022-04-04 11:24:16","c79472ad15d8b617a4d57d5bf56a810f","183.88.75.194","Mozilla/5.0 (Windows NT 10.0; Win64; x64) AppleWebKit/537.36 (KHTML, like Gecko) Chrome/100.0.4896.60 Safari/537.36","WebKit","Chrome","100.0.4896.60","Windows","10.0","null","null","","","<p style=""font-size:64px;"">+</p>","P_2_3_P",""
"","","","","","html-keyboard-response","70","264709","0.0-2.0-3.0-0.0-1.4","34","1","2022-04-04 11:24:16","c79472ad15d8b617a4d57d5bf56a810f","183.88.75.194","Mozilla/5.0 (Windows NT 10.0; Win64; x64) AppleWebKit/537.36 (KHTML, like Gecko) Chrome/100.0.4896.60 Safari/537.36","WebKit","Chrome","100.0.4896.60","Windows","10.0","null","null","","","
                        <div class=pink>
                        <div class=""centered"">
                            <p style=""font-size: 24px""><b>53%</b></p>
                        </div>","P_2_3_P",""
"","","","","","html-keyboard-response","71","265111","0.0-2.0-3.0-0.0-0.5","34","1","2022-04-04 11:24:16","c79472ad15d8b617a4d57d5bf56a810f","183.88.75.194","Mozilla/5.0 (Windows NT 10.0; Win64; x64) AppleWebKit/537.36 (KHTML, like Gecko) Chrome/100.0.4896.60 Safari/537.36","WebKit","Chrome","100.0.4896.60","Windows","10.0","null","null","","","<p style=""font-size:64px;"">+</p>","P_2_3_P",""
"","","","","","html-keyboard-response","72","266362","0.0-2.0-3.0-0.0-1.5","34","1","2022-04-04 11:24:16","c79472ad15d8b617a4d57d5bf56a810f","183.88.75.194","Mozilla/5.0 (Windows NT 10.0; Win64; x64) AppleWebKit/537.36 (KHTML, like Gecko) Chrome/100.0.4896.60 Safari/537.36","WebKit","Chrome","100.0.4896.60","Windows","10.0","null","null","","","
                        <div class=pink>
                        <div class=""centered"">
                            <p style=""font-size: 24px""><b>53%</b></p>
                        </div>","P_2_3_P",""
"","","","","","html-keyboard-response","73","266764","0.0-2.0-3.0-1.0-0.0","34","1","2022-04-04 11:24:16","c79472ad15d8b617a4d57d5bf56a810f","183.88.75.194","Mozilla/5.0 (Windows NT 10.0; Win64; x64) AppleWebKit/537.36 (KHTML, like Gecko) Chrome/100.0.4896.60 Safari/537.36","WebKit","Chrome","100.0.4896.60","Windows","10.0","null","null","","","<p style=""font-size:64px;"">+</p>","P_2_3_P",""
"","","","","","html-keyboard-response","74","268016","0.0-2.0-3.0-1.0-1.0","34","1","2022-04-04 11:24:16","c79472ad15d8b617a4d57d5bf56a810f","183.88.75.194","Mozilla/5.0 (Windows NT 10.0; Win64; x64) AppleWebKit/537.36 (KHTML, like Gecko) Chrome/100.0.4896.60 Safari/537.36","WebKit","Chrome","100.0.4896.60","Windows","10.0","null","null","","","
                        <div class=""pink"">
                        <div class=""centered"">
                            <p style=""font-size: 24px""><b>50%</b></p>
                        </div>","P_2_3_P",""
"","","","","","html-slider-response","75","270703","0.0-2.0-3.0-2.0","34","1","2022-04-04 11:24:16","c79472ad15d8b617a4d57d5bf56a810f","183.88.75.194","Mozilla/5.0 (Windows NT 10.0; Win64; x64) AppleWebKit/537.36 (KHTML, like Gecko) Chrome/100.0.4896.60 Safari/537.36","WebKit","Chrome","100.0.4896.60","Windows","10.0","2685.3999999910593","25","","","<div style=""width: 500px; height: 100px;""><p>Place your bid for more information.</p></div>","infoBid","31"
"","","","","","html-keyboard-response","76","271104","0.0-2.0-3.0-3.0-0.0","34","1","2022-04-04 11:24:16","c79472ad15d8b617a4d57d5bf56a810f","183.88.75.194","Mozilla/5.0 (Windows NT 10.0; Win64; x64) AppleWebKit/537.36 (KHTML, like Gecko) Chrome/100.0.4896.60 Safari/537.36","WebKit","Chrome","100.0.4896.60","Windows","10.0","null","null","","","<p style=""font-size:64px;"">+</p>","P_2_3_P",""
"","","","","","html-keyboard-response","77","272360","0.0-2.0-3.0-3.0-1.0","34","1","2022-04-04 11:24:16","c79472ad15d8b617a4d57d5bf56a810f","183.88.75.194","Mozilla/5.0 (Windows NT 10.0; Win64; x64) AppleWebKit/537.36 (KHTML, like Gecko) Chrome/100.0.4896.60 Safari/537.36","WebKit","Chrome","100.0.4896.60","Windows","10.0","null","null","","","<div class=""grey"">
                <div class=""centered"">
                    <p style=""font-size: 24px""><b>???</b></p>
                </div>","P_2_3_P",""
"","","","","","html-keyboard-response","78","274027","0.0-2.0-3.0-4.0-0.0","34","1","2022-04-04 11:24:16","c79472ad15d8b617a4d57d5bf56a810f","183.88.75.194","Mozilla/5.0 (Windows NT 10.0; Win64; x64) AppleWebKit/537.36 (KHTML, like Gecko) Chrome/100.0.4896.60 Safari/537.36","WebKit","Chrome","100.0.4896.60","Windows","10.0","1665.3999999910593","f","","","
                      <div class=""row"">

                          <div class=""column"">
                              <div class=""orange""></div>
                              <div class=""leftChoiceText"">
                                  <p style=""font-size: 32px""><b>F</b></p>
                              </div>
                          </div>

                          <div class=""column"">
                              <div class=""pink""></div>
                              <div class=""rightChoiceText"">
                                  <p style=""font-size: 32px""><b>J</b></p>
                              </div>
                          </div>

                      </div>

                      <div class=""centeredTop"">
                          Which colour do you<br>
                          predict will win?
                      </div>","P_2_3_P",""
"","","","","","html-keyboard-response","79","275529","0.0-2.0-3.0-4.0-1.0","34","1","2022-04-04 11:24:16","c79472ad15d8b617a4d57d5bf56a810f","183.88.75.194","Mozilla/5.0 (Windows NT 10.0; Win64; x64) AppleWebKit/537.36 (KHTML, like Gecko) Chrome/100.0.4896.60 Safari/537.36","WebKit","Chrome","100.0.4896.60","Windows","10.0","null","null","","","<p style=""font-size:64px;"">+</p>","P_2_3_P",""
"","","","","","html-keyboard-response","80","275930","0.0-2.0-4.0-0.0-0.0","34","1","2022-04-04 11:24:16","c79472ad15d8b617a4d57d5bf56a810f","183.88.75.194","Mozilla/5.0 (Windows NT 10.0; Win64; x64) AppleWebKit/537.36 (KHTML, like Gecko) Chrome/100.0.4896.60 Safari/537.36","WebKit","Chrome","100.0.4896.60","Windows","10.0","null","null","","","<p style=""font-size:64px;"">+</p>","P_4_2_P",""
"","","","","","html-keyboard-response","81","277182","0.0-2.0-4.0-0.0-1.0","34","1","2022-04-04 11:24:16","c79472ad15d8b617a4d57d5bf56a810f","183.88.75.194","Mozilla/5.0 (Windows NT 10.0; Win64; x64) AppleWebKit/537.36 (KHTML, like Gecko) Chrome/100.0.4896.60 Safari/537.36","WebKit","Chrome","100.0.4896.60","Windows","10.0","null","null","","","
                        <div class=orange>
                        <div class=""centered"">
                            <p style=""font-size: 24px""><b>52%</b></p>
                        </div>","P_4_2_P",""
"","","","","","html-keyboard-response","82","277584","0.0-2.0-4.0-0.0-0.1","34","1","2022-04-04 11:24:16","c79472ad15d8b617a4d57d5bf56a810f","183.88.75.194","Mozilla/5.0 (Windows NT 10.0; Win64; x64) AppleWebKit/537.36 (KHTML, like Gecko) Chrome/100.0.4896.60 Safari/537.36","WebKit","Chrome","100.0.4896.60","Windows","10.0","null","null","","","<p style=""font-size:64px;"">+</p>","P_4_2_P",""
"","","","","","html-keyboard-response","83","278835","0.0-2.0-4.0-0.0-1.1","34","1","2022-04-04 11:24:16","c79472ad15d8b617a4d57d5bf56a810f","183.88.75.194","Mozilla/5.0 (Windows NT 10.0; Win64; x64) AppleWebKit/537.36 (KHTML, like Gecko) Chrome/100.0.4896.60 Safari/537.36","WebKit","Chrome","100.0.4896.60","Windows","10.0","null","null","","","
                        <div class=pink>
                        <div class=""centered"">
                            <p style=""font-size: 24px""><b>51%</b></p>
                        </div>","P_4_2_P",""
"","","","","","html-keyboard-response","84","279237","0.0-2.0-4.0-0.0-0.2","34","1","2022-04-04 11:24:16","c79472ad15d8b617a4d57d5bf56a810f","183.88.75.194","Mozilla/5.0 (Windows NT 10.0; Win64; x64) AppleWebKit/537.36 (KHTML, like Gecko) Chrome/100.0.4896.60 Safari/537.36","WebKit","Chrome","100.0.4896.60","Windows","10.0","null","null","","","<p style=""font-size:64px;"">+</p>","P_4_2_P",""
"","","","","","html-keyboard-response","85","280493","0.0-2.0-4.0-0.0-1.2","34","1","2022-04-04 11:24:16","c79472ad15d8b617a4d57d5bf56a810f","183.88.75.194","Mozilla/5.0 (Windows NT 10.0; Win64; x64) AppleWebKit/537.36 (KHTML, like Gecko) Chrome/100.0.4896.60 Safari/537.36","WebKit","Chrome","100.0.4896.60","Windows","10.0","null","null","","","
                        <div class=orange>
                        <div class=""centered"">
                            <p style=""font-size: 24px""><b>52%</b></p>
                        </div>","P_4_2_P",""
"","","","","","html-keyboard-response","86","280894","0.0-2.0-4.0-0.0-0.3","34","1","2022-04-04 11:24:16","c79472ad15d8b617a4d57d5bf56a810f","183.88.75.194","Mozilla/5.0 (Windows NT 10.0; Win64; x64) AppleWebKit/537.36 (KHTML, like Gecko) Chrome/100.0.4896.60 Safari/537.36","WebKit","Chrome","100.0.4896.60","Windows","10.0","null","null","","","<p style=""font-size:64px;"">+</p>","P_4_2_P",""
"","","","","","html-keyboard-response","87","282146","0.0-2.0-4.0-0.0-1.3","34","1","2022-04-04 11:24:16","c79472ad15d8b617a4d57d5bf56a810f","183.88.75.194","Mozilla/5.0 (Windows NT 10.0; Win64; x64) AppleWebKit/537.36 (KHTML, like Gecko) Chrome/100.0.4896.60 Safari/537.36","WebKit","Chrome","100.0.4896.60","Windows","10.0","null","null","","","
                        <div class=orange>
                        <div class=""centered"">
                            <p style=""font-size: 24px""><b>51%</b></p>
                        </div>","P_4_2_P",""
"","","","","","html-keyboard-response","88","282547","0.0-2.0-4.0-0.0-0.4","34","1","2022-04-04 11:24:16","c79472ad15d8b617a4d57d5bf56a810f","183.88.75.194","Mozilla/5.0 (Windows NT 10.0; Win64; x64) AppleWebKit/537.36 (KHTML, like Gecko) Chrome/100.0.4896.60 Safari/537.36","WebKit","Chrome","100.0.4896.60","Windows","10.0","null","null","","","<p style=""font-size:64px;"">+</p>","P_4_2_P",""
"","","","","","html-keyboard-response","89","283799","0.0-2.0-4.0-0.0-1.4","34","1","2022-04-04 11:24:16","c79472ad15d8b617a4d57d5bf56a810f","183.88.75.194","Mozilla/5.0 (Windows NT 10.0; Win64; x64) AppleWebKit/537.36 (KHTML, like Gecko) Chrome/100.0.4896.60 Safari/537.36","WebKit","Chrome","100.0.4896.60","Windows","10.0","null","null","","","
                        <div class=pink>
                        <div class=""centered"">
                            <p style=""font-size: 24px""><b>54%</b></p>
                        </div>","P_4_2_P",""
"","","","","","html-keyboard-response","90","284201","0.0-2.0-4.0-0.0-0.5","34","1","2022-04-04 11:24:16","c79472ad15d8b617a4d57d5bf56a810f","183.88.75.194","Mozilla/5.0 (Windows NT 10.0; Win64; x64) AppleWebKit/537.36 (KHTML, like Gecko) Chrome/100.0.4896.60 Safari/537.36","WebKit","Chrome","100.0.4896.60","Windows","10.0","null","null","","","<p style=""font-size:64px;"">+</p>","P_4_2_P",""
"","","","","","html-keyboard-response","91","285453","0.0-2.0-4.0-0.0-1.5","34","1","2022-04-04 11:24:16","c79472ad15d8b617a4d57d5bf56a810f","183.88.75.194","Mozilla/5.0 (Windows NT 10.0; Win64; x64) AppleWebKit/537.36 (KHTML, like Gecko) Chrome/100.0.4896.60 Safari/537.36","WebKit","Chrome","100.0.4896.60","Windows","10.0","null","null","","","
                        <div class=pink>
                        <div class=""centered"">
                            <p style=""font-size: 24px""><b>54%</b></p>
                        </div>","P_4_2_P",""
"","","","","","html-keyboard-response","92","285854","0.0-2.0-4.0-1.0-0.0","34","1","2022-04-04 11:24:16","c79472ad15d8b617a4d57d5bf56a810f","183.88.75.194","Mozilla/5.0 (Windows NT 10.0; Win64; x64) AppleWebKit/537.36 (KHTML, like Gecko) Chrome/100.0.4896.60 Safari/537.36","WebKit","Chrome","100.0.4896.60","Windows","10.0","null","null","","","<p style=""font-size:64px;"">+</p>","P_4_2_P",""
"","","","","","html-keyboard-response","93","287106","0.0-2.0-4.0-1.0-1.0","34","1","2022-04-04 11:24:16","c79472ad15d8b617a4d57d5bf56a810f","183.88.75.194","Mozilla/5.0 (Windows NT 10.0; Win64; x64) AppleWebKit/537.36 (KHTML, like Gecko) Chrome/100.0.4896.60 Safari/537.36","WebKit","Chrome","100.0.4896.60","Windows","10.0","null","null","","","
                        <div class=""pink"">
                        <div class=""centered"">
                            <p style=""font-size: 24px""><b>50%</b></p>
                        </div>","P_4_2_P",""
"","","","","","html-slider-response","94","289421","0.0-2.0-4.0-2.0","34","1","2022-04-04 11:24:16","c79472ad15d8b617a4d57d5bf56a810f","183.88.75.194","Mozilla/5.0 (Windows NT 10.0; Win64; x64) AppleWebKit/537.36 (KHTML, like Gecko) Chrome/100.0.4896.60 Safari/537.36","WebKit","Chrome","100.0.4896.60","Windows","10.0","2314","34","","","<div style=""width: 500px; height: 100px;""><p>Place your bid for more information.</p></div>","infoBid","31"
"","","","","","html-keyboard-response","95","289828","0.0-2.0-4.0-3.0-0.0","34","1","2022-04-04 11:24:16","c79472ad15d8b617a4d57d5bf56a810f","183.88.75.194","Mozilla/5.0 (Windows NT 10.0; Win64; x64) AppleWebKit/537.36 (KHTML, like Gecko) Chrome/100.0.4896.60 Safari/537.36","WebKit","Chrome","100.0.4896.60","Windows","10.0","null","null","","","<p style=""font-size:64px;"">+</p>","P_4_2_P",""
"","","","","","html-keyboard-response","96","291079","0.0-2.0-4.0-3.0-1.0","34","1","2022-04-04 11:24:16","c79472ad15d8b617a4d57d5bf56a810f","183.88.75.194","Mozilla/5.0 (Windows NT 10.0; Win64; x64) AppleWebKit/537.36 (KHTML, like Gecko) Chrome/100.0.4896.60 Safari/537.36","WebKit","Chrome","100.0.4896.60","Windows","10.0","null","null","","","<div class=pink>
                <div class=""centered"">
                    <p style=""font-size: 24px""><b>52%</b></p>
                </div>","P_4_2_P",""
"","","","","","html-keyboard-response","97","291600","0.0-2.0-4.0-4.0-0.0","34","1","2022-04-04 11:24:16","c79472ad15d8b617a4d57d5bf56a810f","183.88.75.194","Mozilla/5.0 (Windows NT 10.0; Win64; x64) AppleWebKit/537.36 (KHTML, like Gecko) Chrome/100.0.4896.60 Safari/537.36","WebKit","Chrome","100.0.4896.60","Windows","10.0","519.0999999940395","j","","","
                      <div class=""row"">

                          <div class=""column"">
                              <div class=""orange""></div>
                              <div class=""leftChoiceText"">
                                  <p style=""font-size: 32px""><b>F</b></p>
                              </div>
                          </div>

                          <div class=""column"">
                              <div class=""pink""></div>
                              <div class=""rightChoiceText"">
                                  <p style=""font-size: 32px""><b>J</b></p>
                              </div>
                          </div>

                      </div>

                      <div class=""centeredTop"">
                          Which colour do you<br>
                          predict will win?
                      </div>","P_4_2_P",""
"","","","","","html-keyboard-response","98","293101","0.0-2.0-4.0-4.0-1.0","34","1","2022-04-04 11:24:16","c79472ad15d8b617a4d57d5bf56a810f","183.88.75.194","Mozilla/5.0 (Windows NT 10.0; Win64; x64) AppleWebKit/537.36 (KHTML, like Gecko) Chrome/100.0.4896.60 Safari/537.36","WebKit","Chrome","100.0.4896.60","Windows","10.0","null","null","","","<p style=""font-size:64px;"">+</p>","P_4_2_P",""
"","","","","","html-keyboard-response","99","293503","0.0-2.0-5.0-0.0-0.0","34","1","2022-04-04 11:24:16","c79472ad15d8b617a4d57d5bf56a810f","183.88.75.194","Mozilla/5.0 (Windows NT 10.0; Win64; x64) AppleWebKit/537.36 (KHTML, like Gecko) Chrome/100.0.4896.60 Safari/537.36","WebKit","Chrome","100.0.4896.60","Windows","10.0","null","null","","","<p style=""font-size:64px;"">+</p>","O_2_2_P",""
"","","","","","html-keyboard-response","100","294754","0.0-2.0-5.0-0.0-1.0","34","1","2022-04-04 11:24:16","c79472ad15d8b617a4d57d5bf56a810f","183.88.75.194","Mozilla/5.0 (Windows NT 10.0; Win64; x64) AppleWebKit/537.36 (KHTML, like Gecko) Chrome/100.0.4896.60 Safari/537.36","WebKit","Chrome","100.0.4896.60","Windows","10.0","null","null","","","
                        <div class=pink>
                        <div class=""centered"">
                            <p style=""font-size: 24px""><b>52%</b></p>
                        </div>","O_2_2_P",""
"","","","","","html-keyboard-response","101","295154","0.0-2.0-5.0-0.0-0.1","34","1","2022-04-04 11:24:16","c79472ad15d8b617a4d57d5bf56a810f","183.88.75.194","Mozilla/5.0 (Windows NT 10.0; Win64; x64) AppleWebKit/537.36 (KHTML, like Gecko) Chrome/100.0.4896.60 Safari/537.36","WebKit","Chrome","100.0.4896.60","Windows","10.0","null","null","","","<p style=""font-size:64px;"">+</p>","O_2_2_P",""
"","","","","","html-keyboard-response","102","296406","0.0-2.0-5.0-0.0-1.1","34","1","2022-04-04 11:24:16","c79472ad15d8b617a4d57d5bf56a810f","183.88.75.194","Mozilla/5.0 (Windows NT 10.0; Win64; x64) AppleWebKit/537.36 (KHTML, like Gecko) Chrome/100.0.4896.60 Safari/537.36","WebKit","Chrome","100.0.4896.60","Windows","10.0","null","null","","","
                        <div class=orange>
                        <div class=""centered"">
                            <p style=""font-size: 24px""><b>52%</b></p>
                        </div>","O_2_2_P",""
"","","","","","html-keyboard-response","103","296807","0.0-2.0-5.0-0.0-0.2","34","1","2022-04-04 11:24:16","c79472ad15d8b617a4d57d5bf56a810f","183.88.75.194","Mozilla/5.0 (Windows NT 10.0; Win64; x64) AppleWebKit/537.36 (KHTML, like Gecko) Chrome/100.0.4896.60 Safari/537.36","WebKit","Chrome","100.0.4896.60","Windows","10.0","null","null","","","<p style=""font-size:64px;"">+</p>","O_2_2_P",""
"","","","","","html-keyboard-response","104","298059","0.0-2.0-5.0-0.0-1.2","34","1","2022-04-04 11:24:16","c79472ad15d8b617a4d57d5bf56a810f","183.88.75.194","Mozilla/5.0 (Windows NT 10.0; Win64; x64) AppleWebKit/537.36 (KHTML, like Gecko) Chrome/100.0.4896.60 Safari/537.36","WebKit","Chrome","100.0.4896.60","Windows","10.0","null","null","","","
                        <div class=pink>
                        <div class=""centered"">
                            <p style=""font-size: 24px""><b>54%</b></p>
                        </div>","O_2_2_P",""
"","","","","","html-keyboard-response","105","298466","0.0-2.0-5.0-0.0-0.3","34","1","2022-04-04 11:24:16","c79472ad15d8b617a4d57d5bf56a810f","183.88.75.194","Mozilla/5.0 (Windows NT 10.0; Win64; x64) AppleWebKit/537.36 (KHTML, like Gecko) Chrome/100.0.4896.60 Safari/537.36","WebKit","Chrome","100.0.4896.60","Windows","10.0","null","null","","","<p style=""font-size:64px;"">+</p>","O_2_2_P",""
"","","","","","html-keyboard-response","106","299719","0.0-2.0-5.0-0.0-1.3","34","1","2022-04-04 11:24:16","c79472ad15d8b617a4d57d5bf56a810f","183.88.75.194","Mozilla/5.0 (Windows NT 10.0; Win64; x64) AppleWebKit/537.36 (KHTML, like Gecko) Chrome/100.0.4896.60 Safari/537.36","WebKit","Chrome","100.0.4896.60","Windows","10.0","null","null","","","
                        <div class=orange>
                        <div class=""centered"">
                            <p style=""font-size: 24px""><b>53%</b></p>
                        </div>","O_2_2_P",""
"","","","","","html-keyboard-response","107","300121","0.0-2.0-5.0-0.0-0.4","34","1","2022-04-04 11:24:16","c79472ad15d8b617a4d57d5bf56a810f","183.88.75.194","Mozilla/5.0 (Windows NT 10.0; Win64; x64) AppleWebKit/537.36 (KHTML, like Gecko) Chrome/100.0.4896.60 Safari/537.36","WebKit","Chrome","100.0.4896.60","Windows","10.0","null","null","","","<p style=""font-size:64px;"">+</p>","O_2_2_P",""
"","","","","","html-keyboard-response","108","301372","0.0-2.0-5.0-0.0-1.4","34","1","2022-04-04 11:24:16","c79472ad15d8b617a4d57d5bf56a810f","183.88.75.194","Mozilla/5.0 (Windows NT 10.0; Win64; x64) AppleWebKit/537.36 (KHTML, like Gecko) Chrome/100.0.4896.60 Safari/537.36","WebKit","Chrome","100.0.4896.60","Windows","10.0","null","null","","","
                        <div class=orange>
                        <div class=""centered"">
                            <p style=""font-size: 24px""><b>55%</b></p>
                        </div>","O_2_2_P",""
"","","","","","html-keyboard-response","109","301773","0.0-2.0-5.0-0.0-0.5","34","1","2022-04-04 11:24:16","c79472ad15d8b617a4d57d5bf56a810f","183.88.75.194","Mozilla/5.0 (Windows NT 10.0; Win64; x64) AppleWebKit/537.36 (KHTML, like Gecko) Chrome/100.0.4896.60 Safari/537.36","WebKit","Chrome","100.0.4896.60","Windows","10.0","null","null","","","<p style=""font-size:64px;"">+</p>","O_2_2_P",""
"","","","","","html-keyboard-response","110","303024","0.0-2.0-5.0-0.0-1.5","34","1","2022-04-04 11:24:16","c79472ad15d8b617a4d57d5bf56a810f","183.88.75.194","Mozilla/5.0 (Windows NT 10.0; Win64; x64) AppleWebKit/537.36 (KHTML, like Gecko) Chrome/100.0.4896.60 Safari/537.36","WebKit","Chrome","100.0.4896.60","Windows","10.0","null","null","","","
                        <div class=pink>
                        <div class=""centered"">
                            <p style=""font-size: 24px""><b>52%</b></p>
                        </div>","O_2_2_P",""
"","","","","","html-keyboard-response","111","303426","0.0-2.0-5.0-1.0-0.0","34","1","2022-04-04 11:24:16","c79472ad15d8b617a4d57d5bf56a810f","183.88.75.194","Mozilla/5.0 (Windows NT 10.0; Win64; x64) AppleWebKit/537.36 (KHTML, like Gecko) Chrome/100.0.4896.60 Safari/537.36","WebKit","Chrome","100.0.4896.60","Windows","10.0","null","null","","","<p style=""font-size:64px;"">+</p>","O_2_2_P",""
"","","","","","html-keyboard-response","112","304678","0.0-2.0-5.0-1.0-1.0","34","1","2022-04-04 11:24:16","c79472ad15d8b617a4d57d5bf56a810f","183.88.75.194","Mozilla/5.0 (Windows NT 10.0; Win64; x64) AppleWebKit/537.36 (KHTML, like Gecko) Chrome/100.0.4896.60 Safari/537.36","WebKit","Chrome","100.0.4896.60","Windows","10.0","null","null","","","
                        <div class=""pink"">
                        <div class=""centered"">
                            <p style=""font-size: 24px""><b>50%</b></p>
                        </div>","O_2_2_P",""
"","","","","","html-slider-response","113","306499","0.0-2.0-5.0-2.0","34","1","2022-04-04 11:24:16","c79472ad15d8b617a4d57d5bf56a810f","183.88.75.194","Mozilla/5.0 (Windows NT 10.0; Win64; x64) AppleWebKit/537.36 (KHTML, like Gecko) Chrome/100.0.4896.60 Safari/537.36","WebKit","Chrome","100.0.4896.60","Windows","10.0","1819.2999999970198","35","","","<div style=""width: 500px; height: 100px;""><p>Place your bid for more information.</p></div>","infoBid","31"
"","","","","","html-keyboard-response","114","306906","0.0-2.0-5.0-3.0-0.0","34","1","2022-04-04 11:24:16","c79472ad15d8b617a4d57d5bf56a810f","183.88.75.194","Mozilla/5.0 (Windows NT 10.0; Win64; x64) AppleWebKit/537.36 (KHTML, like Gecko) Chrome/100.0.4896.60 Safari/537.36","WebKit","Chrome","100.0.4896.60","Windows","10.0","null","null","","","<p style=""font-size:64px;"">+</p>","O_2_2_P",""
"","","","","","html-keyboard-response","115","308157","0.0-2.0-5.0-3.0-1.0","34","1","2022-04-04 11:24:16","c79472ad15d8b617a4d57d5bf56a810f","183.88.75.194","Mozilla/5.0 (Windows NT 10.0; Win64; x64) AppleWebKit/537.36 (KHTML, like Gecko) Chrome/100.0.4896.60 Safari/537.36","WebKit","Chrome","100.0.4896.60","Windows","10.0","null","null","","","<div class=pink>
                <div class=""centered"">
                    <p style=""font-size: 24px""><b>53%</b></p>
                </div>","O_2_2_P",""
"","","","","","html-keyboard-response","116","308692","0.0-2.0-5.0-4.0-0.0","34","1","2022-04-04 11:24:16","c79472ad15d8b617a4d57d5bf56a810f","183.88.75.194","Mozilla/5.0 (Windows NT 10.0; Win64; x64) AppleWebKit/537.36 (KHTML, like Gecko) Chrome/100.0.4896.60 Safari/537.36","WebKit","Chrome","100.0.4896.60","Windows","10.0","533.6000000089407","f","","","
                      <div class=""row"">

                          <div class=""column"">
                              <div class=""orange""></div>
                              <div class=""leftChoiceText"">
                                  <p style=""font-size: 32px""><b>F</b></p>
                              </div>
                          </div>

                          <div class=""column"">
                              <div class=""pink""></div>
                              <div class=""rightChoiceText"">
                                  <p style=""font-size: 32px""><b>J</b></p>
                              </div>
                          </div>

                      </div>

                      <div class=""centeredTop"">
                          Which colour do you<br>
                          predict will win?
                      </div>","O_2_2_P",""
"","","","","","html-keyboard-response","117","310194","0.0-2.0-5.0-4.0-1.0","34","1","2022-04-04 11:24:16","c79472ad15d8b617a4d57d5bf56a810f","183.88.75.194","Mozilla/5.0 (Windows NT 10.0; Win64; x64) AppleWebKit/537.36 (KHTML, like Gecko) Chrome/100.0.4896.60 Safari/537.36","WebKit","Chrome","100.0.4896.60","Windows","10.0","null","null","","","<p style=""font-size:64px;"">+</p>","O_2_2_P",""
"","","","","","html-keyboard-response","118","310595","0.0-2.0-6.0-0.0-0.0","34","1","2022-04-04 11:24:16","c79472ad15d8b617a4d57d5bf56a810f","183.88.75.194","Mozilla/5.0 (Windows NT 10.0; Win64; x64) AppleWebKit/537.36 (KHTML, like Gecko) Chrome/100.0.4896.60 Safari/537.36","WebKit","Chrome","100.0.4896.60","Windows","10.0","null","null","","","<p style=""font-size:64px;"">+</p>","P_2_1_O",""
"","","","","","html-keyboard-response","119","311847","0.0-2.0-6.0-0.0-1.0","34","1","2022-04-04 11:24:16","c79472ad15d8b617a4d57d5bf56a810f","183.88.75.194","Mozilla/5.0 (Windows NT 10.0; Win64; x64) AppleWebKit/537.36 (KHTML, like Gecko) Chrome/100.0.4896.60 Safari/537.36","WebKit","Chrome","100.0.4896.60","Windows","10.0","null","null","","","
                        <div class=orange>
                        <div class=""centered"">
                            <p style=""font-size: 24px""><b>55%</b></p>
                        </div>","P_2_1_O",""
"","","","","","html-keyboard-response","120","312248","0.0-2.0-6.0-0.0-0.1","34","1","2022-04-04 11:24:16","c79472ad15d8b617a4d57d5bf56a810f","183.88.75.194","Mozilla/5.0 (Windows NT 10.0; Win64; x64) AppleWebKit/537.36 (KHTML, like Gecko) Chrome/100.0.4896.60 Safari/537.36","WebKit","Chrome","100.0.4896.60","Windows","10.0","null","null","","","<p style=""font-size:64px;"">+</p>","P_2_1_O",""
"","","","","","html-keyboard-response","121","313499","0.0-2.0-6.0-0.0-1.1","34","1","2022-04-04 11:24:16","c79472ad15d8b617a4d57d5bf56a810f","183.88.75.194","Mozilla/5.0 (Windows NT 10.0; Win64; x64) AppleWebKit/537.36 (KHTML, like Gecko) Chrome/100.0.4896.60 Safari/537.36","WebKit","Chrome","100.0.4896.60","Windows","10.0","null","null","","","
                        <div class=orange>
                        <div class=""centered"">
                            <p style=""font-size: 24px""><b>52%</b></p>
                        </div>","P_2_1_O",""
"","","","","","html-keyboard-response","122","313901","0.0-2.0-6.0-0.0-0.2","34","1","2022-04-04 11:24:16","c79472ad15d8b617a4d57d5bf56a810f","183.88.75.194","Mozilla/5.0 (Windows NT 10.0; Win64; x64) AppleWebKit/537.36 (KHTML, like Gecko) Chrome/100.0.4896.60 Safari/537.36","WebKit","Chrome","100.0.4896.60","Windows","10.0","null","null","","","<p style=""font-size:64px;"">+</p>","P_2_1_O",""
"","","","","","html-keyboard-response","123","315152","0.0-2.0-6.0-0.0-1.2","34","1","2022-04-04 11:24:16","c79472ad15d8b617a4d57d5bf56a810f","183.88.75.194","Mozilla/5.0 (Windows NT 10.0; Win64; x64) AppleWebKit/537.36 (KHTML, like Gecko) Chrome/100.0.4896.60 Safari/537.36","WebKit","Chrome","100.0.4896.60","Windows","10.0","null","null","","","
                        <div class=pink>
                        <div class=""centered"">
                            <p style=""font-size: 24px""><b>54%</b></p>
                        </div>","P_2_1_O",""
"","","","","","html-keyboard-response","124","315560","0.0-2.0-6.0-0.0-0.3","34","1","2022-04-04 11:24:16","c79472ad15d8b617a4d57d5bf56a810f","183.88.75.194","Mozilla/5.0 (Windows NT 10.0; Win64; x64) AppleWebKit/537.36 (KHTML, like Gecko) Chrome/100.0.4896.60 Safari/537.36","WebKit","Chrome","100.0.4896.60","Windows","10.0","null","null","","","<p style=""font-size:64px;"">+</p>","P_2_1_O",""
"","","","","","html-keyboard-response","125","316812","0.0-2.0-6.0-0.0-1.3","34","1","2022-04-04 11:24:16","c79472ad15d8b617a4d57d5bf56a810f","183.88.75.194","Mozilla/5.0 (Windows NT 10.0; Win64; x64) AppleWebKit/537.36 (KHTML, like Gecko) Chrome/100.0.4896.60 Safari/537.36","WebKit","Chrome","100.0.4896.60","Windows","10.0","null","null","","","
                        <div class=pink>
                        <div class=""centered"">
                            <p style=""font-size: 24px""><b>54%</b></p>
                        </div>","P_2_1_O",""
"","","","","","html-keyboard-response","126","317213","0.0-2.0-6.0-0.0-0.4","34","1","2022-04-04 11:24:16","c79472ad15d8b617a4d57d5bf56a810f","183.88.75.194","Mozilla/5.0 (Windows NT 10.0; Win64; x64) AppleWebKit/537.36 (KHTML, like Gecko) Chrome/100.0.4896.60 Safari/537.36","WebKit","Chrome","100.0.4896.60","Windows","10.0","null","null","","","<p style=""font-size:64px;"">+</p>","P_2_1_O",""
"","","","","","html-keyboard-response","127","318465","0.0-2.0-6.0-0.0-1.4","34","1","2022-04-04 11:24:16","c79472ad15d8b617a4d57d5bf56a810f","183.88.75.194","Mozilla/5.0 (Windows NT 10.0; Win64; x64) AppleWebKit/537.36 (KHTML, like Gecko) Chrome/100.0.4896.60 Safari/537.36","WebKit","Chrome","100.0.4896.60","Windows","10.0","null","null","","","
                        <div class=orange>
                        <div class=""centered"">
                            <p style=""font-size: 24px""><b>51%</b></p>
                        </div>","P_2_1_O",""
"","","","","","html-keyboard-response","128","318866","0.0-2.0-6.0-0.0-0.5","34","1","2022-04-04 11:24:16","c79472ad15d8b617a4d57d5bf56a810f","183.88.75.194","Mozilla/5.0 (Windows NT 10.0; Win64; x64) AppleWebKit/537.36 (KHTML, like Gecko) Chrome/100.0.4896.60 Safari/537.36","WebKit","Chrome","100.0.4896.60","Windows","10.0","null","null","","","<p style=""font-size:64px;"">+</p>","P_2_1_O",""
"","","","","","html-keyboard-response","129","320119","0.0-2.0-6.0-0.0-1.5","34","1","2022-04-04 11:24:16","c79472ad15d8b617a4d57d5bf56a810f","183.88.75.194","Mozilla/5.0 (Windows NT 10.0; Win64; x64) AppleWebKit/537.36 (KHTML, like Gecko) Chrome/100.0.4896.60 Safari/537.36","WebKit","Chrome","100.0.4896.60","Windows","10.0","null","null","","","
                        <div class=pink>
                        <div class=""centered"">
                            <p style=""font-size: 24px""><b>52%</b></p>
                        </div>","P_2_1_O",""
"","","","","","html-keyboard-response","130","320520","0.0-2.0-6.0-1.0-0.0","34","1","2022-04-04 11:24:16","c79472ad15d8b617a4d57d5bf56a810f","183.88.75.194","Mozilla/5.0 (Windows NT 10.0; Win64; x64) AppleWebKit/537.36 (KHTML, like Gecko) Chrome/100.0.4896.60 Safari/537.36","WebKit","Chrome","100.0.4896.60","Windows","10.0","null","null","","","<p style=""font-size:64px;"">+</p>","P_2_1_O",""
"","","","","","html-keyboard-response","131","321771","0.0-2.0-6.0-1.0-1.0","34","1","2022-04-04 11:24:16","c79472ad15d8b617a4d57d5bf56a810f","183.88.75.194","Mozilla/5.0 (Windows NT 10.0; Win64; x64) AppleWebKit/537.36 (KHTML, like Gecko) Chrome/100.0.4896.60 Safari/537.36","WebKit","Chrome","100.0.4896.60","Windows","10.0","null","null","","","
                        <div class=""orange"">
                        <div class=""centered"">
                            <p style=""font-size: 24px""><b>50%</b></p>
                        </div>","P_2_1_O",""
"","","","","","html-slider-response","132","323208","0.0-2.0-6.0-2.0","34","1","2022-04-04 11:24:16","c79472ad15d8b617a4d57d5bf56a810f","183.88.75.194","Mozilla/5.0 (Windows NT 10.0; Win64; x64) AppleWebKit/537.36 (KHTML, like Gecko) Chrome/100.0.4896.60 Safari/537.36","WebKit","Chrome","100.0.4896.60","Windows","10.0","1434.8999999910593","36","","","<div style=""width: 500px; height: 100px;""><p>Place your bid for more information.</p></div>","infoBid","49"
"","","","","","html-keyboard-response","133","323610","0.0-2.0-6.0-3.0-0.0","34","1","2022-04-04 11:24:16","c79472ad15d8b617a4d57d5bf56a810f","183.88.75.194","Mozilla/5.0 (Windows NT 10.0; Win64; x64) AppleWebKit/537.36 (KHTML, like Gecko) Chrome/100.0.4896.60 Safari/537.36","WebKit","Chrome","100.0.4896.60","Windows","10.0","null","null","","","<p style=""font-size:64px;"">+</p>","P_2_1_O",""
"","","","","","html-keyboard-response","134","324869","0.0-2.0-6.0-3.0-1.0","34","1","2022-04-04 11:24:16","c79472ad15d8b617a4d57d5bf56a810f","183.88.75.194","Mozilla/5.0 (Windows NT 10.0; Win64; x64) AppleWebKit/537.36 (KHTML, like Gecko) Chrome/100.0.4896.60 Safari/537.36","WebKit","Chrome","100.0.4896.60","Windows","10.0","null","null","","","<div class=""grey"">
                <div class=""centered"">
                    <p style=""font-size: 24px""><b>???</b></p>
                </div>","P_2_1_O",""
"","","","","","html-keyboard-response","135","325386","0.0-2.0-6.0-4.0-0.0","34","1","2022-04-04 11:24:16","c79472ad15d8b617a4d57d5bf56a810f","183.88.75.194","Mozilla/5.0 (Windows NT 10.0; Win64; x64) AppleWebKit/537.36 (KHTML, like Gecko) Chrome/100.0.4896.60 Safari/537.36","WebKit","Chrome","100.0.4896.60","Windows","10.0","516.4000000059605","j","","","
                      <div class=""row"">

                          <div class=""column"">
                              <div class=""orange""></div>
                              <div class=""leftChoiceText"">
                                  <p style=""font-size: 32px""><b>F</b></p>
                              </div>
                          </div>

                          <div class=""column"">
                              <div class=""pink""></div>
                              <div class=""rightChoiceText"">
                                  <p style=""font-size: 32px""><b>J</b></p>
                              </div>
                          </div>

                      </div>

                      <div class=""centeredTop"">
                          Which colour do you<br>
                          predict will win?
                      </div>","P_2_1_O",""
"","","","","","html-keyboard-response","136","326888","0.0-2.0-6.0-4.0-1.0","34","1","2022-04-04 11:24:16","c79472ad15d8b617a4d57d5bf56a810f","183.88.75.194","Mozilla/5.0 (Windows NT 10.0; Win64; x64) AppleWebKit/537.36 (KHTML, like Gecko) Chrome/100.0.4896.60 Safari/537.36","WebKit","Chrome","100.0.4896.60","Windows","10.0","null","null","","","<p style=""font-size:64px;"">+</p>","P_2_1_O",""
"","","","","","html-keyboard-response","137","327289","0.0-2.0-7.0-0.0-0.0","34","1","2022-04-04 11:24:16","c79472ad15d8b617a4d57d5bf56a810f","183.88.75.194","Mozilla/5.0 (Windows NT 10.0; Win64; x64) AppleWebKit/537.36 (KHTML, like Gecko) Chrome/100.0.4896.60 Safari/537.36","WebKit","Chrome","100.0.4896.60","Windows","10.0","null","null","","","<p style=""font-size:64px;"">+</p>","P_6_5_P",""
"","","","","","html-keyboard-response","138","328542","0.0-2.0-7.0-0.0-1.0","34","1","2022-04-04 11:24:16","c79472ad15d8b617a4d57d5bf56a810f","183.88.75.194","Mozilla/5.0 (Windows NT 10.0; Win64; x64) AppleWebKit/537.36 (KHTML, like Gecko) Chrome/100.0.4896.60 Safari/537.36","WebKit","Chrome","100.0.4896.60","Windows","10.0","null","null","","","
                        <div class=orange>
                        <div class=""centered"">
                            <p style=""font-size: 24px""><b>52%</b></p>
                        </div>","P_6_5_P",""
"","","","","","html-keyboard-response","139","328943","0.0-2.0-7.0-0.0-0.1","34","1","2022-04-04 11:24:16","c79472ad15d8b617a4d57d5bf56a810f","183.88.75.194","Mozilla/5.0 (Windows NT 10.0; Win64; x64) AppleWebKit/537.36 (KHTML, like Gecko) Chrome/100.0.4896.60 Safari/537.36","WebKit","Chrome","100.0.4896.60","Windows","10.0","null","null","","","<p style=""font-size:64px;"">+</p>","P_6_5_P",""
"","","","","","html-keyboard-response","140","330195","0.0-2.0-7.0-0.0-1.1","34","1","2022-04-04 11:24:16","c79472ad15d8b617a4d57d5bf56a810f","183.88.75.194","Mozilla/5.0 (Windows NT 10.0; Win64; x64) AppleWebKit/537.36 (KHTML, like Gecko) Chrome/100.0.4896.60 Safari/537.36","WebKit","Chrome","100.0.4896.60","Windows","10.0","null","null","","","
                        <div class=orange>
                        <div class=""centered"">
                            <p style=""font-size: 24px""><b>54%</b></p>
                        </div>","P_6_5_P",""
"","","","","","html-keyboard-response","141","330596","0.0-2.0-7.0-0.0-0.2","34","1","2022-04-04 11:24:16","c79472ad15d8b617a4d57d5bf56a810f","183.88.75.194","Mozilla/5.0 (Windows NT 10.0; Win64; x64) AppleWebKit/537.36 (KHTML, like Gecko) Chrome/100.0.4896.60 Safari/537.36","WebKit","Chrome","100.0.4896.60","Windows","10.0","null","null","","","<p style=""font-size:64px;"">+</p>","P_6_5_P",""
"","","","","","html-keyboard-response","142","331848","0.0-2.0-7.0-0.0-1.2","34","1","2022-04-04 11:24:16","c79472ad15d8b617a4d57d5bf56a810f","183.88.75.194","Mozilla/5.0 (Windows NT 10.0; Win64; x64) AppleWebKit/537.36 (KHTML, like Gecko) Chrome/100.0.4896.60 Safari/537.36","WebKit","Chrome","100.0.4896.60","Windows","10.0","null","null","","","
                        <div class=orange>
                        <div class=""centered"">
                            <p style=""font-size: 24px""><b>52%</b></p>
                        </div>","P_6_5_P",""
"","","","","","html-keyboard-response","143","332257","0.0-2.0-7.0-0.0-0.3","34","1","2022-04-04 11:24:16","c79472ad15d8b617a4d57d5bf56a810f","183.88.75.194","Mozilla/5.0 (Windows NT 10.0; Win64; x64) AppleWebKit/537.36 (KHTML, like Gecko) Chrome/100.0.4896.60 Safari/537.36","WebKit","Chrome","100.0.4896.60","Windows","10.0","null","null","","","<p style=""font-size:64px;"">+</p>","P_6_5_P",""
"","","","","","html-keyboard-response","144","333508","0.0-2.0-7.0-0.0-1.3","34","1","2022-04-04 11:24:16","c79472ad15d8b617a4d57d5bf56a810f","183.88.75.194","Mozilla/5.0 (Windows NT 10.0; Win64; x64) AppleWebKit/537.36 (KHTML, like Gecko) Chrome/100.0.4896.60 Safari/537.36","WebKit","Chrome","100.0.4896.60","Windows","10.0","null","null","","","
                        <div class=pink>
                        <div class=""centered"">
                            <p style=""font-size: 24px""><b>54%</b></p>
                        </div>","P_6_5_P",""
"","","","","","html-keyboard-response","145","333910","0.0-2.0-7.0-0.0-0.4","34","1","2022-04-04 11:24:16","c79472ad15d8b617a4d57d5bf56a810f","183.88.75.194","Mozilla/5.0 (Windows NT 10.0; Win64; x64) AppleWebKit/537.36 (KHTML, like Gecko) Chrome/100.0.4896.60 Safari/537.36","WebKit","Chrome","100.0.4896.60","Windows","10.0","null","null","","","<p style=""font-size:64px;"">+</p>","P_6_5_P",""
"","","","","","html-keyboard-response","146","335162","0.0-2.0-7.0-0.0-1.4","34","1","2022-04-04 11:24:16","c79472ad15d8b617a4d57d5bf56a810f","183.88.75.194","Mozilla/5.0 (Windows NT 10.0; Win64; x64) AppleWebKit/537.36 (KHTML, like Gecko) Chrome/100.0.4896.60 Safari/537.36","WebKit","Chrome","100.0.4896.60","Windows","10.0","null","null","","","
                        <div class=pink>
                        <div class=""centered"">
                            <p style=""font-size: 24px""><b>55%</b></p>
                        </div>","P_6_5_P",""
"","","","","","html-keyboard-response","147","335564","0.0-2.0-7.0-0.0-0.5","34","1","2022-04-04 11:24:16","c79472ad15d8b617a4d57d5bf56a810f","183.88.75.194","Mozilla/5.0 (Windows NT 10.0; Win64; x64) AppleWebKit/537.36 (KHTML, like Gecko) Chrome/100.0.4896.60 Safari/537.36","WebKit","Chrome","100.0.4896.60","Windows","10.0","null","null","","","<p style=""font-size:64px;"">+</p>","P_6_5_P",""
"","","","","","html-keyboard-response","148","336815","0.0-2.0-7.0-0.0-1.5","34","1","2022-04-04 11:24:16","c79472ad15d8b617a4d57d5bf56a810f","183.88.75.194","Mozilla/5.0 (Windows NT 10.0; Win64; x64) AppleWebKit/537.36 (KHTML, like Gecko) Chrome/100.0.4896.60 Safari/537.36","WebKit","Chrome","100.0.4896.60","Windows","10.0","null","null","","","
                        <div class=pink>
                        <div class=""centered"">
                            <p style=""font-size: 24px""><b>55%</b></p>
                        </div>","P_6_5_P",""
"","","","","","html-keyboard-response","149","337216","0.0-2.0-7.0-1.0-0.0","34","1","2022-04-04 11:24:16","c79472ad15d8b617a4d57d5bf56a810f","183.88.75.194","Mozilla/5.0 (Windows NT 10.0; Win64; x64) AppleWebKit/537.36 (KHTML, like Gecko) Chrome/100.0.4896.60 Safari/537.36","WebKit","Chrome","100.0.4896.60","Windows","10.0","null","null","","","<p style=""font-size:64px;"">+</p>","P_6_5_P",""
"","","","","","html-keyboard-response","150","338469","0.0-2.0-7.0-1.0-1.0","34","1","2022-04-04 11:24:16","c79472ad15d8b617a4d57d5bf56a810f","183.88.75.194","Mozilla/5.0 (Windows NT 10.0; Win64; x64) AppleWebKit/537.36 (KHTML, like Gecko) Chrome/100.0.4896.60 Safari/537.36","WebKit","Chrome","100.0.4896.60","Windows","10.0","null","null","","","
                        <div class=""pink"">
                        <div class=""centered"">
                            <p style=""font-size: 24px""><b>50%</b></p>
                        </div>","P_6_5_P",""
"","","","","","html-slider-response","151","340861","0.0-2.0-7.0-2.0","34","1","2022-04-04 11:24:16","c79472ad15d8b617a4d57d5bf56a810f","183.88.75.194","Mozilla/5.0 (Windows NT 10.0; Win64; x64) AppleWebKit/537.36 (KHTML, like Gecko) Chrome/100.0.4896.60 Safari/537.36","WebKit","Chrome","100.0.4896.60","Windows","10.0","2391","50","","","<div style=""width: 500px; height: 100px;""><p>Place your bid for more information.</p></div>","infoBid","13"
"","","","","","html-keyboard-response","152","341271","0.0-2.0-7.0-3.0-0.0","34","1","2022-04-04 11:24:16","c79472ad15d8b617a4d57d5bf56a810f","183.88.75.194","Mozilla/5.0 (Windows NT 10.0; Win64; x64) AppleWebKit/537.36 (KHTML, like Gecko) Chrome/100.0.4896.60 Safari/537.36","WebKit","Chrome","100.0.4896.60","Windows","10.0","null","null","","","<p style=""font-size:64px;"">+</p>","P_6_5_P",""
"","","","","","html-keyboard-response","153","342522","0.0-2.0-7.0-3.0-1.0","34","1","2022-04-04 11:24:16","c79472ad15d8b617a4d57d5bf56a810f","183.88.75.194","Mozilla/5.0 (Windows NT 10.0; Win64; x64) AppleWebKit/537.36 (KHTML, like Gecko) Chrome/100.0.4896.60 Safari/537.36","WebKit","Chrome","100.0.4896.60","Windows","10.0","null","null","","","<div class=orange>
                <div class=""centered"">
                    <p style=""font-size: 24px""><b>51%</b></p>
                </div>","P_6_5_P",""
"","","","","","html-keyboard-response","154","343322","0.0-2.0-7.0-4.0-0.0","34","1","2022-04-04 11:24:16","c79472ad15d8b617a4d57d5bf56a810f","183.88.75.194","Mozilla/5.0 (Windows NT 10.0; Win64; x64) AppleWebKit/537.36 (KHTML, like Gecko) Chrome/100.0.4896.60 Safari/537.36","WebKit","Chrome","100.0.4896.60","Windows","10.0","798.7000000029802","j","","","
                      <div class=""row"">

                          <div class=""column"">
                              <div class=""orange""></div>
                              <div class=""leftChoiceText"">
                                  <p style=""font-size: 32px""><b>F</b></p>
                              </div>
                          </div>

                          <div class=""column"">
                              <div class=""pink""></div>
                              <div class=""rightChoiceText"">
                                  <p style=""font-size: 32px""><b>J</b></p>
                              </div>
                          </div>

                      </div>

                      <div class=""centeredTop"">
                          Which colour do you<br>
                          predict will win?
                      </div>","P_6_5_P",""
"","","","","","html-keyboard-response","155","344824","0.0-2.0-7.0-4.0-1.0","34","1","2022-04-04 11:24:16","c79472ad15d8b617a4d57d5bf56a810f","183.88.75.194","Mozilla/5.0 (Windows NT 10.0; Win64; x64) AppleWebKit/537.36 (KHTML, like Gecko) Chrome/100.0.4896.60 Safari/537.36","WebKit","Chrome","100.0.4896.60","Windows","10.0","null","null","","","<p style=""font-size:64px;"">+</p>","P_6_5_P",""
"","","","","","html-keyboard-response","156","347641","0.0-2.0-8.0","34","1","2022-04-04 11:24:16","c79472ad15d8b617a4d57d5bf56a810f","183.88.75.194","Mozilla/5.0 (Windows NT 10.0; Win64; x64) AppleWebKit/537.36 (KHTML, like Gecko) Chrome/100.0.4896.60 Safari/537.36","WebKit","Chrome","100.0.4896.60","Windows","10.0","2816.2000000029802"," ","","","This is the end of the practice trials.<br><br>
        Press spacebar to begin the experiment.","",""
"","","","","","html-keyboard-response","157","348042","0.0-2.0-9.0-0.0-0.0","34","1","2022-04-04 11:24:16","c79472ad15d8b617a4d57d5bf56a810f","183.88.75.194","Mozilla/5.0 (Windows NT 10.0; Win64; x64) AppleWebKit/537.36 (KHTML, like Gecko) Chrome/100.0.4896.60 Safari/537.36","WebKit","Chrome","100.0.4896.60","Windows","10.0","null","null","","","<p style=""font-size:64px;"">+</p>","P_4_2_P",""
"","","","","","html-keyboard-response","158","349294","0.0-2.0-9.0-0.0-1.0","34","1","2022-04-04 11:24:16","c79472ad15d8b617a4d57d5bf56a810f","183.88.75.194","Mozilla/5.0 (Windows NT 10.0; Win64; x64) AppleWebKit/537.36 (KHTML, like Gecko) Chrome/100.0.4896.60 Safari/537.36","WebKit","Chrome","100.0.4896.60","Windows","10.0","null","null","","","
                        <div class=pink>
                        <div class=""centered"">
                            <p style=""font-size: 24px""><b>54%</b></p>
                        </div>","P_4_2_P",""
"","","","","","html-keyboard-response","159","349704","0.0-2.0-9.0-0.0-0.1","34","1","2022-04-04 11:24:16","c79472ad15d8b617a4d57d5bf56a810f","183.88.75.194","Mozilla/5.0 (Windows NT 10.0; Win64; x64) AppleWebKit/537.36 (KHTML, like Gecko) Chrome/100.0.4896.60 Safari/537.36","WebKit","Chrome","100.0.4896.60","Windows","10.0","null","null","","","<p style=""font-size:64px;"">+</p>","P_4_2_P",""
"","","","","","html-keyboard-response","160","350956","0.0-2.0-9.0-0.0-1.1","34","1","2022-04-04 11:24:16","c79472ad15d8b617a4d57d5bf56a810f","183.88.75.194","Mozilla/5.0 (Windows NT 10.0; Win64; x64) AppleWebKit/537.36 (KHTML, like Gecko) Chrome/100.0.4896.60 Safari/537.36","WebKit","Chrome","100.0.4896.60","Windows","10.0","null","null","","","
                        <div class=orange>
                        <div class=""centered"">
                            <p style=""font-size: 24px""><b>51%</b></p>
                        </div>","P_4_2_P",""
"","","","","","html-keyboard-response","161","351357","0.0-2.0-9.0-0.0-0.2","34","1","2022-04-04 11:24:16","c79472ad15d8b617a4d57d5bf56a810f","183.88.75.194","Mozilla/5.0 (Windows NT 10.0; Win64; x64) AppleWebKit/537.36 (KHTML, like Gecko) Chrome/100.0.4896.60 Safari/537.36","WebKit","Chrome","100.0.4896.60","Windows","10.0","null","null","","","<p style=""font-size:64px;"">+</p>","P_4_2_P",""
"","","","","","html-keyboard-response","162","352608","0.0-2.0-9.0-0.0-1.2","34","1","2022-04-04 11:24:16","c79472ad15d8b617a4d57d5bf56a810f","183.88.75.194","Mozilla/5.0 (Windows NT 10.0; Win64; x64) AppleWebKit/537.36 (KHTML, like Gecko) Chrome/100.0.4896.60 Safari/537.36","WebKit","Chrome","100.0.4896.60","Windows","10.0","null","null","","","
                        <div class=orange>
                        <div class=""centered"">
                            <p style=""font-size: 24px""><b>52%</b></p>
                        </div>","P_4_2_P",""
"","","","","","html-keyboard-response","163","353009","0.0-2.0-9.0-0.0-0.3","34","1","2022-04-04 11:24:16","c79472ad15d8b617a4d57d5bf56a810f","183.88.75.194","Mozilla/5.0 (Windows NT 10.0; Win64; x64) AppleWebKit/537.36 (KHTML, like Gecko) Chrome/100.0.4896.60 Safari/537.36","WebKit","Chrome","100.0.4896.60","Windows","10.0","null","null","","","<p style=""font-size:64px;"">+</p>","P_4_2_P",""
"","","","","","html-keyboard-response","164","354261","0.0-2.0-9.0-0.0-1.3","34","1","2022-04-04 11:24:16","c79472ad15d8b617a4d57d5bf56a810f","183.88.75.194","Mozilla/5.0 (Windows NT 10.0; Win64; x64) AppleWebKit/537.36 (KHTML, like Gecko) Chrome/100.0.4896.60 Safari/537.36","WebKit","Chrome","100.0.4896.60","Windows","10.0","null","null","","","
                        <div class=pink>
                        <div class=""centered"">
                            <p style=""font-size: 24px""><b>51%</b></p>
                        </div>","P_4_2_P",""
"","","","","","html-keyboard-response","165","354662","0.0-2.0-9.0-0.0-0.4","34","1","2022-04-04 11:24:16","c79472ad15d8b617a4d57d5bf56a810f","183.88.75.194","Mozilla/5.0 (Windows NT 10.0; Win64; x64) AppleWebKit/537.36 (KHTML, like Gecko) Chrome/100.0.4896.60 Safari/537.36","WebKit","Chrome","100.0.4896.60","Windows","10.0","null","null","","","<p style=""font-size:64px;"">+</p>","P_4_2_P",""
"","","","","","html-keyboard-response","166","355914","0.0-2.0-9.0-0.0-1.4","34","1","2022-04-04 11:24:16","c79472ad15d8b617a4d57d5bf56a810f","183.88.75.194","Mozilla/5.0 (Windows NT 10.0; Win64; x64) AppleWebKit/537.36 (KHTML, like Gecko) Chrome/100.0.4896.60 Safari/537.36","WebKit","Chrome","100.0.4896.60","Windows","10.0","null","null","","","
                        <div class=pink>
                        <div class=""centered"">
                            <p style=""font-size: 24px""><b>54%</b></p>
                        </div>","P_4_2_P",""
"","","","","","html-keyboard-response","167","356316","0.0-2.0-9.0-0.0-0.5","34","1","2022-04-04 11:24:16","c79472ad15d8b617a4d57d5bf56a810f","183.88.75.194","Mozilla/5.0 (Windows NT 10.0; Win64; x64) AppleWebKit/537.36 (KHTML, like Gecko) Chrome/100.0.4896.60 Safari/537.36","WebKit","Chrome","100.0.4896.60","Windows","10.0","null","null","","","<p style=""font-size:64px;"">+</p>","P_4_2_P",""
"","","","","","html-keyboard-response","168","357567","0.0-2.0-9.0-0.0-1.5","34","1","2022-04-04 11:24:16","c79472ad15d8b617a4d57d5bf56a810f","183.88.75.194","Mozilla/5.0 (Windows NT 10.0; Win64; x64) AppleWebKit/537.36 (KHTML, like Gecko) Chrome/100.0.4896.60 Safari/537.36","WebKit","Chrome","100.0.4896.60","Windows","10.0","null","null","","","
                        <div class=orange>
                        <div class=""centered"">
                            <p style=""font-size: 24px""><b>52%</b></p>
                        </div>","P_4_2_P",""
"","","","","","html-keyboard-response","169","357978","0.0-2.0-9.0-1.0-0.0","34","1","2022-04-04 11:24:16","c79472ad15d8b617a4d57d5bf56a810f","183.88.75.194","Mozilla/5.0 (Windows NT 10.0; Win64; x64) AppleWebKit/537.36 (KHTML, like Gecko) Chrome/100.0.4896.60 Safari/537.36","WebKit","Chrome","100.0.4896.60","Windows","10.0","null","null","","","<p style=""font-size:64px;"">+</p>","P_4_2_P",""
"","","","","","html-keyboard-response","170","359230","0.0-2.0-9.0-1.0-1.0","34","1","2022-04-04 11:24:16","c79472ad15d8b617a4d57d5bf56a810f","183.88.75.194","Mozilla/5.0 (Windows NT 10.0; Win64; x64) AppleWebKit/537.36 (KHTML, like Gecko) Chrome/100.0.4896.60 Safari/537.36","WebKit","Chrome","100.0.4896.60","Windows","10.0","null","null","","","
                        <div class=""pink"">
                        <div class=""centered"">
                            <p style=""font-size: 24px""><b>50%</b></p>
                        </div>","P_4_2_P",""
"","","","","","html-slider-response","171","360823","0.0-2.0-9.0-2.0","34","1","2022-04-04 11:24:16","c79472ad15d8b617a4d57d5bf56a810f","183.88.75.194","Mozilla/5.0 (Windows NT 10.0; Win64; x64) AppleWebKit/537.36 (KHTML, like Gecko) Chrome/100.0.4896.60 Safari/537.36","WebKit","Chrome","100.0.4896.60","Windows","10.0","1592.5999999940395","32","","","<div style=""width: 500px; height: 100px;""><p>Place your bid for more information.</p></div>","infoBid","12"
"","","","","","html-keyboard-response","172","361225","0.0-2.0-9.0-3.0-0.0","34","1","2022-04-04 11:24:16","c79472ad15d8b617a4d57d5bf56a810f","183.88.75.194","Mozilla/5.0 (Windows NT 10.0; Win64; x64) AppleWebKit/537.36 (KHTML, like Gecko) Chrome/100.0.4896.60 Safari/537.36","WebKit","Chrome","100.0.4896.60","Windows","10.0","null","null","","","<p style=""font-size:64px;"">+</p>","P_4_2_P",""
"","","","","","html-keyboard-response","173","362476","0.0-2.0-9.0-3.0-1.0","34","1","2022-04-04 11:24:16","c79472ad15d8b617a4d57d5bf56a810f","183.88.75.194","Mozilla/5.0 (Windows NT 10.0; Win64; x64) AppleWebKit/537.36 (KHTML, like Gecko) Chrome/100.0.4896.60 Safari/537.36","WebKit","Chrome","100.0.4896.60","Windows","10.0","null","null","","","<div class=pink>
                <div class=""centered"">
                    <p style=""font-size: 24px""><b>52%</b></p>
                </div>","P_4_2_P",""
"","","","","","html-keyboard-response","174","363241","0.0-2.0-9.0-4.0-0.0","34","1","2022-04-04 11:24:16","c79472ad15d8b617a4d57d5bf56a810f","183.88.75.194","Mozilla/5.0 (Windows NT 10.0; Win64; x64) AppleWebKit/537.36 (KHTML, like Gecko) Chrome/100.0.4896.60 Safari/537.36","WebKit","Chrome","100.0.4896.60","Windows","10.0","763.7000000029802","j","","","
                      <div class=""row"">

                          <div class=""column"">
                              <div class=""orange""></div>
                              <div class=""leftChoiceText"">
                                  <p style=""font-size: 32px""><b>F</b></p>
                              </div>
                          </div>

                          <div class=""column"">
                              <div class=""pink""></div>
                              <div class=""rightChoiceText"">
                                  <p style=""font-size: 32px""><b>J</b></p>
                              </div>
                          </div>

                      </div>

                      <div class=""centeredTop"">
                          Which colour do you<br>
                          predict will win?
                      </div>","P_4_2_P",""
"","","","","","html-keyboard-response","175","364742","0.0-2.0-9.0-4.0-1.0","34","1","2022-04-04 11:24:16","c79472ad15d8b617a4d57d5bf56a810f","183.88.75.194","Mozilla/5.0 (Windows NT 10.0; Win64; x64) AppleWebKit/537.36 (KHTML, like Gecko) Chrome/100.0.4896.60 Safari/537.36","WebKit","Chrome","100.0.4896.60","Windows","10.0","null","null","","","<p style=""font-size:64px;"">+</p>","P_4_2_P",""
"","","","","","html-keyboard-response","176","365144","0.0-2.0-10.0-0.0-0.0","34","1","2022-04-04 11:24:16","c79472ad15d8b617a4d57d5bf56a810f","183.88.75.194","Mozilla/5.0 (Windows NT 10.0; Win64; x64) AppleWebKit/537.36 (KHTML, like Gecko) Chrome/100.0.4896.60 Safari/537.36","WebKit","Chrome","100.0.4896.60","Windows","10.0","null","null","","","<p style=""font-size:64px;"">+</p>","P_4_1_P",""
"","","","","","html-keyboard-response","177","366395","0.0-2.0-10.0-0.0-1.0","34","1","2022-04-04 11:24:16","c79472ad15d8b617a4d57d5bf56a810f","183.88.75.194","Mozilla/5.0 (Windows NT 10.0; Win64; x64) AppleWebKit/537.36 (KHTML, like Gecko) Chrome/100.0.4896.60 Safari/537.36","WebKit","Chrome","100.0.4896.60","Windows","10.0","null","null","","","
                        <div class=pink>
                        <div class=""centered"">
                            <p style=""font-size: 24px""><b>53%</b></p>
                        </div>","P_4_1_P",""
"","","","","","html-keyboard-response","178","366806","0.0-2.0-10.0-0.0-0.1","34","1","2022-04-04 11:24:16","c79472ad15d8b617a4d57d5bf56a810f","183.88.75.194","Mozilla/5.0 (Windows NT 10.0; Win64; x64) AppleWebKit/537.36 (KHTML, like Gecko) Chrome/100.0.4896.60 Safari/537.36","WebKit","Chrome","100.0.4896.60","Windows","10.0","null","null","","","<p style=""font-size:64px;"">+</p>","P_4_1_P",""
"","","","","","html-keyboard-response","179","368073","0.0-2.0-10.0-0.0-1.1","34","1","2022-04-04 11:24:16","c79472ad15d8b617a4d57d5bf56a810f","183.88.75.194","Mozilla/5.0 (Windows NT 10.0; Win64; x64) AppleWebKit/537.36 (KHTML, like Gecko) Chrome/100.0.4896.60 Safari/537.36","WebKit","Chrome","100.0.4896.60","Windows","10.0","null","null","","","
                        <div class=pink>
                        <div class=""centered"">
                            <p style=""font-size: 24px""><b>54%</b></p>
                        </div>","P_4_1_P",""
"","","","","","html-keyboard-response","180","368475","0.0-2.0-10.0-0.0-0.2","34","1","2022-04-04 11:24:16","c79472ad15d8b617a4d57d5bf56a810f","183.88.75.194","Mozilla/5.0 (Windows NT 10.0; Win64; x64) AppleWebKit/537.36 (KHTML, like Gecko) Chrome/100.0.4896.60 Safari/537.36","WebKit","Chrome","100.0.4896.60","Windows","10.0","null","null","","","<p style=""font-size:64px;"">+</p>","P_4_1_P",""
"","","","","","html-keyboard-response","181","369726","0.0-2.0-10.0-0.0-1.2","34","1","2022-04-04 11:24:16","c79472ad15d8b617a4d57d5bf56a810f","183.88.75.194","Mozilla/5.0 (Windows NT 10.0; Win64; x64) AppleWebKit/537.36 (KHTML, like Gecko) Chrome/100.0.4896.60 Safari/537.36","WebKit","Chrome","100.0.4896.60","Windows","10.0","null","null","","","
                        <div class=orange>
                        <div class=""centered"">
                            <p style=""font-size: 24px""><b>55%</b></p>
                        </div>","P_4_1_P",""
"","","","","","html-keyboard-response","182","370127","0.0-2.0-10.0-0.0-0.3","34","1","2022-04-04 11:24:16","c79472ad15d8b617a4d57d5bf56a810f","183.88.75.194","Mozilla/5.0 (Windows NT 10.0; Win64; x64) AppleWebKit/537.36 (KHTML, like Gecko) Chrome/100.0.4896.60 Safari/537.36","WebKit","Chrome","100.0.4896.60","Windows","10.0","null","null","","","<p style=""font-size:64px;"">+</p>","P_4_1_P",""
"","","","","","html-keyboard-response","183","371379","0.0-2.0-10.0-0.0-1.3","34","1","2022-04-04 11:24:16","c79472ad15d8b617a4d57d5bf56a810f","183.88.75.194","Mozilla/5.0 (Windows NT 10.0; Win64; x64) AppleWebKit/537.36 (KHTML, like Gecko) Chrome/100.0.4896.60 Safari/537.36","WebKit","Chrome","100.0.4896.60","Windows","10.0","null","null","","","
                        <div class=pink>
                        <div class=""centered"">
                            <p style=""font-size: 24px""><b>54%</b></p>
                        </div>","P_4_1_P",""
"","","","","","html-keyboard-response","184","371781","0.0-2.0-10.0-0.0-0.4","34","1","2022-04-04 11:24:16","c79472ad15d8b617a4d57d5bf56a810f","183.88.75.194","Mozilla/5.0 (Windows NT 10.0; Win64; x64) AppleWebKit/537.36 (KHTML, like Gecko) Chrome/100.0.4896.60 Safari/537.36","WebKit","Chrome","100.0.4896.60","Windows","10.0","null","null","","","<p style=""font-size:64px;"">+</p>","P_4_1_P",""
"","","","","","html-keyboard-response","185","373032","0.0-2.0-10.0-0.0-1.4","34","1","2022-04-04 11:24:16","c79472ad15d8b617a4d57d5bf56a810f","183.88.75.194","Mozilla/5.0 (Windows NT 10.0; Win64; x64) AppleWebKit/537.36 (KHTML, like Gecko) Chrome/100.0.4896.60 Safari/537.36","WebKit","Chrome","100.0.4896.60","Windows","10.0","null","null","","","
                        <div class=orange>
                        <div class=""centered"">
                            <p style=""font-size: 24px""><b>51%</b></p>
                        </div>","P_4_1_P",""
"","","","","","html-keyboard-response","186","373434","0.0-2.0-10.0-0.0-0.5","34","1","2022-04-04 11:24:16","c79472ad15d8b617a4d57d5bf56a810f","183.88.75.194","Mozilla/5.0 (Windows NT 10.0; Win64; x64) AppleWebKit/537.36 (KHTML, like Gecko) Chrome/100.0.4896.60 Safari/537.36","WebKit","Chrome","100.0.4896.60","Windows","10.0","null","null","","","<p style=""font-size:64px;"">+</p>","P_4_1_P",""
"","","","","","html-keyboard-response","187","374686","0.0-2.0-10.0-0.0-1.5","34","1","2022-04-04 11:24:16","c79472ad15d8b617a4d57d5bf56a810f","183.88.75.194","Mozilla/5.0 (Windows NT 10.0; Win64; x64) AppleWebKit/537.36 (KHTML, like Gecko) Chrome/100.0.4896.60 Safari/537.36","WebKit","Chrome","100.0.4896.60","Windows","10.0","null","null","","","
                        <div class=orange>
                        <div class=""centered"">
                            <p style=""font-size: 24px""><b>51%</b></p>
                        </div>","P_4_1_P",""
"","","","","","html-keyboard-response","188","375097","0.0-2.0-10.0-1.0-0.0","34","1","2022-04-04 11:24:16","c79472ad15d8b617a4d57d5bf56a810f","183.88.75.194","Mozilla/5.0 (Windows NT 10.0; Win64; x64) AppleWebKit/537.36 (KHTML, like Gecko) Chrome/100.0.4896.60 Safari/537.36","WebKit","Chrome","100.0.4896.60","Windows","10.0","null","null","","","<p style=""font-size:64px;"">+</p>","P_4_1_P",""
"","","","","","html-keyboard-response","189","376349","0.0-2.0-10.0-1.0-1.0","34","1","2022-04-04 11:24:16","c79472ad15d8b617a4d57d5bf56a810f","183.88.75.194","Mozilla/5.0 (Windows NT 10.0; Win64; x64) AppleWebKit/537.36 (KHTML, like Gecko) Chrome/100.0.4896.60 Safari/537.36","WebKit","Chrome","100.0.4896.60","Windows","10.0","null","null","","","
                        <div class=""pink"">
                        <div class=""centered"">
                            <p style=""font-size: 24px""><b>50%</b></p>
                        </div>","P_4_1_P",""
"","","","","","html-slider-response","190","378749","0.0-2.0-10.0-2.0","34","1","2022-04-04 11:24:16","c79472ad15d8b617a4d57d5bf56a810f","183.88.75.194","Mozilla/5.0 (Windows NT 10.0; Win64; x64) AppleWebKit/537.36 (KHTML, like Gecko) Chrome/100.0.4896.60 Safari/537.36","WebKit","Chrome","100.0.4896.60","Windows","10.0","2399","37","","","<div style=""width: 500px; height: 100px;""><p>Place your bid for more information.</p></div>","infoBid","16"
"","","","","","html-keyboard-response","191","379150","0.0-2.0-10.0-3.0-0.0","34","1","2022-04-04 11:24:16","c79472ad15d8b617a4d57d5bf56a810f","183.88.75.194","Mozilla/5.0 (Windows NT 10.0; Win64; x64) AppleWebKit/537.36 (KHTML, like Gecko) Chrome/100.0.4896.60 Safari/537.36","WebKit","Chrome","100.0.4896.60","Windows","10.0","null","null","","","<p style=""font-size:64px;"">+</p>","P_4_1_P",""
"","","","","","html-keyboard-response","192","380401","0.0-2.0-10.0-3.0-1.0","34","1","2022-04-04 11:24:16","c79472ad15d8b617a4d57d5bf56a810f","183.88.75.194","Mozilla/5.0 (Windows NT 10.0; Win64; x64) AppleWebKit/537.36 (KHTML, like Gecko) Chrome/100.0.4896.60 Safari/537.36","WebKit","Chrome","100.0.4896.60","Windows","10.0","null","null","","","<div class=orange>
                <div class=""centered"">
                    <p style=""font-size: 24px""><b>53%</b></p>
                </div>","P_4_1_P",""
"","","","","","html-keyboard-response","193","380776","0.0-2.0-10.0-4.0-0.0","34","1","2022-04-04 11:24:16","c79472ad15d8b617a4d57d5bf56a810f","183.88.75.194","Mozilla/5.0 (Windows NT 10.0; Win64; x64) AppleWebKit/537.36 (KHTML, like Gecko) Chrome/100.0.4896.60 Safari/537.36","WebKit","Chrome","100.0.4896.60","Windows","10.0","372.70000000298023","j","","","
                      <div class=""row"">

                          <div class=""column"">
                              <div class=""orange""></div>
                              <div class=""leftChoiceText"">
                                  <p style=""font-size: 32px""><b>F</b></p>
                              </div>
                          </div>

                          <div class=""column"">
                              <div class=""pink""></div>
                              <div class=""rightChoiceText"">
                                  <p style=""font-size: 32px""><b>J</b></p>
                              </div>
                          </div>

                      </div>

                      <div class=""centeredTop"">
                          Which colour do you<br>
                          predict will win?
                      </div>","P_4_1_P",""
