"success","timeout","failed_images","failed_audio","failed_video","trial_type","trial_index","time_elapsed","internal_node_id","run_id","condition","recorded_at","source_code_version","ip","user_agent","device","browser","browser_version","platform","platform_version","rt","response","question_order","view_history","stimulus","trial_name","slider_start"
"true","false","[]","[]","[]","preload","0","222","0.0-0.0","10","1","2022-04-01 06:16:36","c79472ad15d8b617a4d57d5bf56a810f","101.186.6.238","Mozilla/5.0 (Windows NT 10.0; Win64; x64) AppleWebKit/537.36 (KHTML, like Gecko) Chrome/99.0.4844.84 Safari/537.36","WebKit","Chrome","99.0.4844.84","Windows","10.0","","","","","","",""
"","","","","","survey-multi-choice","1","2328","0.0-1.0-0.0","10","1","2022-04-01 06:16:36","c79472ad15d8b617a4d57d5bf56a810f","101.186.6.238","Mozilla/5.0 (Windows NT 10.0; Win64; x64) AppleWebKit/537.36 (KHTML, like Gecko) Chrome/99.0.4844.84 Safari/537.36","WebKit","Chrome","99.0.4844.84","Windows","10.0","2102.399999856949","{""Gender"":""Male""}","[0]","","","",""
"","","","","","survey-text","2","4503","0.0-1.0-1.0","10","1","2022-04-01 06:16:36","c79472ad15d8b617a4d57d5bf56a810f","101.186.6.238","Mozilla/5.0 (Windows NT 10.0; Win64; x64) AppleWebKit/537.36 (KHTML, like Gecko) Chrome/99.0.4844.84 Safari/537.36","WebKit","Chrome","99.0.4844.84","Windows","10.0","2168.7000000476837","{""Age"":""21""}","","","","",""
"","","","","","instructions","3","228259","0.0-1.0-2.0","10","1","2022-04-01 06:16:36","c79472ad15d8b617a4d57d5bf56a810f","101.186.6.238","Mozilla/5.0 (Windows NT 10.0; Win64; x64) AppleWebKit/537.36 (KHTML, like Gecko) Chrome/99.0.4844.84 Safari/537.36","WebKit","Chrome","99.0.4844.84","Windows","10.0","223754.20000004768","","","[{""page_index"":0,""viewing_time"":7769.299999952316},{""page_index"":1,""viewing_time"":19131.800000190735},{""page_index"":2,""viewing_time"":16075.899999856949},{""page_index"":3,""viewing_time"":3100.2000000476837},{""page_index"":2,""viewing_time"":4407.599999904633},{""page_index"":3,""viewing_time"":3178.2000000476837},{""page_index"":4,""viewing_time"":41362},{""page_index"":5,""viewing_time"":21174.200000047684},{""page_index"":6,""viewing_time"":19664.099999904633},{""page_index"":7,""viewing_time"":25870.200000047684},{""page_index"":8,""viewing_time"":11487.900000095367},{""page_index"":9,""viewing_time"":3690},{""page_index"":8,""viewing_time"":914.8999998569489},{""page_index"":9,""viewing_time"":894.9000000953674},{""page_index"":8,""viewing_time"":418.09999990463257},{""page_index"":7,""viewing_time"":519.9000000953674},{""page_index"":8,""viewing_time"":337.59999990463257},{""page_index"":9,""viewing_time"":6146.5},{""page_index"":10,""viewing_time"":4414.300000190735},{""page_index"":11,""viewing_time"":11213.5},{""page_index"":12,""viewing_time"":19426.199999809265},{""page_index"":13,""viewing_time"":2555.7000000476837}]","","",""
"","","","","","html-keyboard-response","4","228662","0.0-2.0-0.0-0.0-0.0","10","1","2022-04-01 06:16:36","c79472ad15d8b617a4d57d5bf56a810f","101.186.6.238","Mozilla/5.0 (Windows NT 10.0; Win64; x64) AppleWebKit/537.36 (KHTML, like Gecko) Chrome/99.0.4844.84 Safari/537.36","WebKit","Chrome","99.0.4844.84","Windows","10.0","null","null","","","<p style=""font-size:64px;"">+</p>","Z_3_P",""
"","","","","","html-keyboard-response","5","229919","0.0-2.0-0.0-0.0-1.0","10","1","2022-04-01 06:16:36","c79472ad15d8b617a4d57d5bf56a810f","101.186.6.238","Mozilla/5.0 (Windows NT 10.0; Win64; x64) AppleWebKit/537.36 (KHTML, like Gecko) Chrome/99.0.4844.84 Safari/537.36","WebKit","Chrome","99.0.4844.84","Windows","10.0","null","null","","","
                        <div class=orange>
                        <div class=""centered"">
                            <p style=""font-size: 24px""><b>52%</b></p>
                        </div>","Z_3_P",""
"","","","","","html-keyboard-response","6","230322","0.0-2.0-0.0-0.0-0.1","10","1","2022-04-01 06:16:36","c79472ad15d8b617a4d57d5bf56a810f","101.186.6.238","Mozilla/5.0 (Windows NT 10.0; Win64; x64) AppleWebKit/537.36 (KHTML, like Gecko) Chrome/99.0.4844.84 Safari/537.36","WebKit","Chrome","99.0.4844.84","Windows","10.0","null","null","","","<p style=""font-size:64px;"">+</p>","Z_3_P",""
"","","","","","html-keyboard-response","7","231575","0.0-2.0-0.0-0.0-1.1","10","1","2022-04-01 06:16:36","c79472ad15d8b617a4d57d5bf56a810f","101.186.6.238","Mozilla/5.0 (Windows NT 10.0; Win64; x64) AppleWebKit/537.36 (KHTML, like Gecko) Chrome/99.0.4844.84 Safari/537.36","WebKit","Chrome","99.0.4844.84","Windows","10.0","null","null","","","
                        <div class=orange>
                        <div class=""centered"">
                            <p style=""font-size: 24px""><b>52%</b></p>
                        </div>","Z_3_P",""
"","","","","","html-keyboard-response","8","231980","0.0-2.0-0.0-0.0-0.2","10","1","2022-04-01 06:16:36","c79472ad15d8b617a4d57d5bf56a810f","101.186.6.238","Mozilla/5.0 (Windows NT 10.0; Win64; x64) AppleWebKit/537.36 (KHTML, like Gecko) Chrome/99.0.4844.84 Safari/537.36","WebKit","Chrome","99.0.4844.84","Windows","10.0","null","null","","","<p style=""font-size:64px;"">+</p>","Z_3_P",""
"","","","","","html-keyboard-response","9","233234","0.0-2.0-0.0-0.0-1.2","10","1","2022-04-01 06:16:36","c79472ad15d8b617a4d57d5bf56a810f","101.186.6.238","Mozilla/5.0 (Windows NT 10.0; Win64; x64) AppleWebKit/537.36 (KHTML, like Gecko) Chrome/99.0.4844.84 Safari/537.36","WebKit","Chrome","99.0.4844.84","Windows","10.0","null","null","","","
                        <div class=pink>
                        <div class=""centered"">
                            <p style=""font-size: 24px""><b>53%</b></p>
                        </div>","Z_3_P",""
"","","","","","html-keyboard-response","10","233639","0.0-2.0-0.0-0.0-0.3","10","1","2022-04-01 06:16:36","c79472ad15d8b617a4d57d5bf56a810f","101.186.6.238","Mozilla/5.0 (Windows NT 10.0; Win64; x64) AppleWebKit/537.36 (KHTML, like Gecko) Chrome/99.0.4844.84 Safari/537.36","WebKit","Chrome","99.0.4844.84","Windows","10.0","null","null","","","<p style=""font-size:64px;"">+</p>","Z_3_P",""
"","","","","","html-keyboard-response","11","234894","0.0-2.0-0.0-0.0-1.3","10","1","2022-04-01 06:16:36","c79472ad15d8b617a4d57d5bf56a810f","101.186.6.238","Mozilla/5.0 (Windows NT 10.0; Win64; x64) AppleWebKit/537.36 (KHTML, like Gecko) Chrome/99.0.4844.84 Safari/537.36","WebKit","Chrome","99.0.4844.84","Windows","10.0","null","null","","","
                        <div class=pink>
                        <div class=""centered"">
                            <p style=""font-size: 24px""><b>53%</b></p>
                        </div>","Z_3_P",""
"","","","","","html-keyboard-response","12","235298","0.0-2.0-0.0-0.0-0.4","10","1","2022-04-01 06:16:36","c79472ad15d8b617a4d57d5bf56a810f","101.186.6.238","Mozilla/5.0 (Windows NT 10.0; Win64; x64) AppleWebKit/537.36 (KHTML, like Gecko) Chrome/99.0.4844.84 Safari/537.36","WebKit","Chrome","99.0.4844.84","Windows","10.0","null","null","","","<p style=""font-size:64px;"">+</p>","Z_3_P",""
"","","","","","html-keyboard-response","13","236552","0.0-2.0-0.0-0.0-1.4","10","1","2022-04-01 06:16:36","c79472ad15d8b617a4d57d5bf56a810f","101.186.6.238","Mozilla/5.0 (Windows NT 10.0; Win64; x64) AppleWebKit/537.36 (KHTML, like Gecko) Chrome/99.0.4844.84 Safari/537.36","WebKit","Chrome","99.0.4844.84","Windows","10.0","null","null","","","
                        <div class=pink>
                        <div class=""centered"">
                            <p style=""font-size: 24px""><b>51%</b></p>
                        </div>","Z_3_P",""
"","","","","","html-keyboard-response","14","236959","0.0-2.0-0.0-0.0-0.5","10","1","2022-04-01 06:16:36","c79472ad15d8b617a4d57d5bf56a810f","101.186.6.238","Mozilla/5.0 (Windows NT 10.0; Win64; x64) AppleWebKit/537.36 (KHTML, like Gecko) Chrome/99.0.4844.84 Safari/537.36","WebKit","Chrome","99.0.4844.84","Windows","10.0","null","null","","","<p style=""font-size:64px;"">+</p>","Z_3_P",""
"","","","","","html-keyboard-response","15","238213","0.0-2.0-0.0-0.0-1.5","10","1","2022-04-01 06:16:36","c79472ad15d8b617a4d57d5bf56a810f","101.186.6.238","Mozilla/5.0 (Windows NT 10.0; Win64; x64) AppleWebKit/537.36 (KHTML, like Gecko) Chrome/99.0.4844.84 Safari/537.36","WebKit","Chrome","99.0.4844.84","Windows","10.0","null","null","","","
                        <div class=orange>
                        <div class=""centered"">
                            <p style=""font-size: 24px""><b>53%</b></p>
                        </div>","Z_3_P",""
"","","","","","html-keyboard-response","16","238616","0.0-2.0-0.0-1.0-0.0","10","1","2022-04-01 06:16:36","c79472ad15d8b617a4d57d5bf56a810f","101.186.6.238","Mozilla/5.0 (Windows NT 10.0; Win64; x64) AppleWebKit/537.36 (KHTML, like Gecko) Chrome/99.0.4844.84 Safari/537.36","WebKit","Chrome","99.0.4844.84","Windows","10.0","null","null","","","<p style=""font-size:64px;"">+</p>","Z_3_P",""
"","","","","","html-keyboard-response","17","239871","0.0-2.0-0.0-1.0-1.0","10","1","2022-04-01 06:16:36","c79472ad15d8b617a4d57d5bf56a810f","101.186.6.238","Mozilla/5.0 (Windows NT 10.0; Win64; x64) AppleWebKit/537.36 (KHTML, like Gecko) Chrome/99.0.4844.84 Safari/537.36","WebKit","Chrome","99.0.4844.84","Windows","10.0","null","null","","","
                        <div class=""pink"">
                        <div class=""centered"">
                            <p style=""font-size: 24px""><b>50%</b></p>
                        </div>","Z_3_P",""
"","","","","","html-slider-response","18","248488","0.0-2.0-0.0-2.0","10","1","2022-04-01 06:16:36","c79472ad15d8b617a4d57d5bf56a810f","101.186.6.238","Mozilla/5.0 (Windows NT 10.0; Win64; x64) AppleWebKit/537.36 (KHTML, like Gecko) Chrome/99.0.4844.84 Safari/537.36","WebKit","Chrome","99.0.4844.84","Windows","10.0","8613.700000047684","25","","","<div style=""width: 500px; height: 100px;""><p>Place your bid for more information.</p></div>","infoBid","0"
"","","","","","html-keyboard-response","19","248891","0.0-2.0-0.0-3.0-0.0","10","1","2022-04-01 06:16:36","c79472ad15d8b617a4d57d5bf56a810f","101.186.6.238","Mozilla/5.0 (Windows NT 10.0; Win64; x64) AppleWebKit/537.36 (KHTML, like Gecko) Chrome/99.0.4844.84 Safari/537.36","WebKit","Chrome","99.0.4844.84","Windows","10.0","null","null","","","<p style=""font-size:64px;"">+</p>","Z_3_P",""
"","","","","","html-keyboard-response","20","250157","0.0-2.0-0.0-3.0-1.0","10","1","2022-04-01 06:16:36","c79472ad15d8b617a4d57d5bf56a810f","101.186.6.238","Mozilla/5.0 (Windows NT 10.0; Win64; x64) AppleWebKit/537.36 (KHTML, like Gecko) Chrome/99.0.4844.84 Safari/537.36","WebKit","Chrome","99.0.4844.84","Windows","10.0","null","null","","","<div class=""grey"">
                <div class=""centered"">
                    <p style=""font-size: 24px""><b>???</b></p>
                </div>","Z_3_P",""
"","","","","","html-keyboard-response","21","254155","0.0-2.0-0.0-4.0-0.0","10","1","2022-04-01 06:16:36","c79472ad15d8b617a4d57d5bf56a810f","101.186.6.238","Mozilla/5.0 (Windows NT 10.0; Win64; x64) AppleWebKit/537.36 (KHTML, like Gecko) Chrome/99.0.4844.84 Safari/537.36","WebKit","Chrome","99.0.4844.84","Windows","10.0","3992.2999999523163","j","","","
                      <div class=""row"">

                          <div class=""column"">
                              <div class=""orange""></div>
                              <div class=""leftChoiceText"">
                                  <p style=""font-size: 32px""><b>F</b></p>
                              </div>
                          </div>

                          <div class=""column"">
                              <div class=""pink""></div>
                              <div class=""rightChoiceText"">
                                  <p style=""font-size: 32px""><b>J</b></p>
                              </div>
                          </div>

                      </div>

                      <div class=""centeredTop"">
                          Which colour do you<br>
                          predict will win?
                      </div>","Z_3_P",""
"","","","","","html-keyboard-response","22","255659","0.0-2.0-0.0-4.0-1.0","10","1","2022-04-01 06:16:36","c79472ad15d8b617a4d57d5bf56a810f","101.186.6.238","Mozilla/5.0 (Windows NT 10.0; Win64; x64) AppleWebKit/537.36 (KHTML, like Gecko) Chrome/99.0.4844.84 Safari/537.36","WebKit","Chrome","99.0.4844.84","Windows","10.0","null","null","","","<p style=""font-size:64px;"">+</p>","Z_3_P",""
"","","","","","html-keyboard-response","23","256063","0.0-2.0-1.0-0.0-0.0","10","1","2022-04-01 06:16:36","c79472ad15d8b617a4d57d5bf56a810f","101.186.6.238","Mozilla/5.0 (Windows NT 10.0; Win64; x64) AppleWebKit/537.36 (KHTML, like Gecko) Chrome/99.0.4844.84 Safari/537.36","WebKit","Chrome","99.0.4844.84","Windows","10.0","null","null","","","<p style=""font-size:64px;"">+</p>","O_4_3_P",""
"","","","","","html-keyboard-response","24","257318","0.0-2.0-1.0-0.0-1.0","10","1","2022-04-01 06:16:36","c79472ad15d8b617a4d57d5bf56a810f","101.186.6.238","Mozilla/5.0 (Windows NT 10.0; Win64; x64) AppleWebKit/537.36 (KHTML, like Gecko) Chrome/99.0.4844.84 Safari/537.36","WebKit","Chrome","99.0.4844.84","Windows","10.0","null","null","","","
                        <div class=pink>
                        <div class=""centered"">
                            <p style=""font-size: 24px""><b>52%</b></p>
                        </div>","O_4_3_P",""
"","","","","","html-keyboard-response","25","257728","0.0-2.0-1.0-0.0-0.1","10","1","2022-04-01 06:16:36","c79472ad15d8b617a4d57d5bf56a810f","101.186.6.238","Mozilla/5.0 (Windows NT 10.0; Win64; x64) AppleWebKit/537.36 (KHTML, like Gecko) Chrome/99.0.4844.84 Safari/537.36","WebKit","Chrome","99.0.4844.84","Windows","10.0","null","null","","","<p style=""font-size:64px;"">+</p>","O_4_3_P",""
"","","","","","html-keyboard-response","26","258984","0.0-2.0-1.0-0.0-1.1","10","1","2022-04-01 06:16:36","c79472ad15d8b617a4d57d5bf56a810f","101.186.6.238","Mozilla/5.0 (Windows NT 10.0; Win64; x64) AppleWebKit/537.36 (KHTML, like Gecko) Chrome/99.0.4844.84 Safari/537.36","WebKit","Chrome","99.0.4844.84","Windows","10.0","null","null","","","
                        <div class=orange>
                        <div class=""centered"">
                            <p style=""font-size: 24px""><b>53%</b></p>
                        </div>","O_4_3_P",""
"","","","","","html-keyboard-response","27","259387","0.0-2.0-1.0-0.0-0.2","10","1","2022-04-01 06:16:36","c79472ad15d8b617a4d57d5bf56a810f","101.186.6.238","Mozilla/5.0 (Windows NT 10.0; Win64; x64) AppleWebKit/537.36 (KHTML, like Gecko) Chrome/99.0.4844.84 Safari/537.36","WebKit","Chrome","99.0.4844.84","Windows","10.0","null","null","","","<p style=""font-size:64px;"">+</p>","O_4_3_P",""
"","","","","","html-keyboard-response","28","260640","0.0-2.0-1.0-0.0-1.2","10","1","2022-04-01 06:16:36","c79472ad15d8b617a4d57d5bf56a810f","101.186.6.238","Mozilla/5.0 (Windows NT 10.0; Win64; x64) AppleWebKit/537.36 (KHTML, like Gecko) Chrome/99.0.4844.84 Safari/537.36","WebKit","Chrome","99.0.4844.84","Windows","10.0","null","null","","","
                        <div class=orange>
                        <div class=""centered"">
                            <p style=""font-size: 24px""><b>53%</b></p>
                        </div>","O_4_3_P",""
"","","","","","html-keyboard-response","29","261042","0.0-2.0-1.0-0.0-0.3","10","1","2022-04-01 06:16:36","c79472ad15d8b617a4d57d5bf56a810f","101.186.6.238","Mozilla/5.0 (Windows NT 10.0; Win64; x64) AppleWebKit/537.36 (KHTML, like Gecko) Chrome/99.0.4844.84 Safari/537.36","WebKit","Chrome","99.0.4844.84","Windows","10.0","null","null","","","<p style=""font-size:64px;"">+</p>","O_4_3_P",""
"","","","","","html-keyboard-response","30","262294","0.0-2.0-1.0-0.0-1.3","10","1","2022-04-01 06:16:36","c79472ad15d8b617a4d57d5bf56a810f","101.186.6.238","Mozilla/5.0 (Windows NT 10.0; Win64; x64) AppleWebKit/537.36 (KHTML, like Gecko) Chrome/99.0.4844.84 Safari/537.36","WebKit","Chrome","99.0.4844.84","Windows","10.0","null","null","","","
                        <div class=pink>
                        <div class=""centered"">
                            <p style=""font-size: 24px""><b>52%</b></p>
                        </div>","O_4_3_P",""
"","","","","","html-keyboard-response","31","262698","0.0-2.0-1.0-0.0-0.4","10","1","2022-04-01 06:16:36","c79472ad15d8b617a4d57d5bf56a810f","101.186.6.238","Mozilla/5.0 (Windows NT 10.0; Win64; x64) AppleWebKit/537.36 (KHTML, like Gecko) Chrome/99.0.4844.84 Safari/537.36","WebKit","Chrome","99.0.4844.84","Windows","10.0","null","null","","","<p style=""font-size:64px;"">+</p>","O_4_3_P",""
"","","","","","html-keyboard-response","32","263952","0.0-2.0-1.0-0.0-1.4","10","1","2022-04-01 06:16:36","c79472ad15d8b617a4d57d5bf56a810f","101.186.6.238","Mozilla/5.0 (Windows NT 10.0; Win64; x64) AppleWebKit/537.36 (KHTML, like Gecko) Chrome/99.0.4844.84 Safari/537.36","WebKit","Chrome","99.0.4844.84","Windows","10.0","null","null","","","
                        <div class=orange>
                        <div class=""centered"">
                            <p style=""font-size: 24px""><b>55%</b></p>
                        </div>","O_4_3_P",""
"","","","","","html-keyboard-response","33","264356","0.0-2.0-1.0-0.0-0.5","10","1","2022-04-01 06:16:36","c79472ad15d8b617a4d57d5bf56a810f","101.186.6.238","Mozilla/5.0 (Windows NT 10.0; Win64; x64) AppleWebKit/537.36 (KHTML, like Gecko) Chrome/99.0.4844.84 Safari/537.36","WebKit","Chrome","99.0.4844.84","Windows","10.0","null","null","","","<p style=""font-size:64px;"">+</p>","O_4_3_P",""
"","","","","","html-keyboard-response","34","265612","0.0-2.0-1.0-0.0-1.5","10","1","2022-04-01 06:16:36","c79472ad15d8b617a4d57d5bf56a810f","101.186.6.238","Mozilla/5.0 (Windows NT 10.0; Win64; x64) AppleWebKit/537.36 (KHTML, like Gecko) Chrome/99.0.4844.84 Safari/537.36","WebKit","Chrome","99.0.4844.84","Windows","10.0","null","null","","","
                        <div class=pink>
                        <div class=""centered"">
                            <p style=""font-size: 24px""><b>53%</b></p>
                        </div>","O_4_3_P",""
"","","","","","html-keyboard-response","35","266020","0.0-2.0-1.0-1.0-0.0","10","1","2022-04-01 06:16:36","c79472ad15d8b617a4d57d5bf56a810f","101.186.6.238","Mozilla/5.0 (Windows NT 10.0; Win64; x64) AppleWebKit/537.36 (KHTML, like Gecko) Chrome/99.0.4844.84 Safari/537.36","WebKit","Chrome","99.0.4844.84","Windows","10.0","null","null","","","<p style=""font-size:64px;"">+</p>","O_4_3_P",""
"","","","","","html-keyboard-response","36","267273","0.0-2.0-1.0-1.0-1.0","10","1","2022-04-01 06:16:36","c79472ad15d8b617a4d57d5bf56a810f","101.186.6.238","Mozilla/5.0 (Windows NT 10.0; Win64; x64) AppleWebKit/537.36 (KHTML, like Gecko) Chrome/99.0.4844.84 Safari/537.36","WebKit","Chrome","99.0.4844.84","Windows","10.0","null","null","","","
                        <div class=""pink"">
                        <div class=""centered"">
                            <p style=""font-size: 24px""><b>50%</b></p>
                        </div>","O_4_3_P",""
"","","","","","html-slider-response","37","274470","0.0-2.0-1.0-2.0","10","1","2022-04-01 06:16:36","c79472ad15d8b617a4d57d5bf56a810f","101.186.6.238","Mozilla/5.0 (Windows NT 10.0; Win64; x64) AppleWebKit/537.36 (KHTML, like Gecko) Chrome/99.0.4844.84 Safari/537.36","WebKit","Chrome","99.0.4844.84","Windows","10.0","7194.799999952316","15","","","<div style=""width: 500px; height: 100px;""><p>Place your bid for more information.</p></div>","infoBid","44"
"","","","","","html-keyboard-response","38","274874","0.0-2.0-1.0-3.0-0.0","10","1","2022-04-01 06:16:36","c79472ad15d8b617a4d57d5bf56a810f","101.186.6.238","Mozilla/5.0 (Windows NT 10.0; Win64; x64) AppleWebKit/537.36 (KHTML, like Gecko) Chrome/99.0.4844.84 Safari/537.36","WebKit","Chrome","99.0.4844.84","Windows","10.0","null","null","","","<p style=""font-size:64px;"">+</p>","O_4_3_P",""
"","","","","","html-keyboard-response","39","276131","0.0-2.0-1.0-3.0-1.0","10","1","2022-04-01 06:16:36","c79472ad15d8b617a4d57d5bf56a810f","101.186.6.238","Mozilla/5.0 (Windows NT 10.0; Win64; x64) AppleWebKit/537.36 (KHTML, like Gecko) Chrome/99.0.4844.84 Safari/537.36","WebKit","Chrome","99.0.4844.84","Windows","10.0","null","null","","","<div class=""grey"">
                <div class=""centered"">
                    <p style=""font-size: 24px""><b>???</b></p>
                </div>","O_4_3_P",""
"","","","","","html-keyboard-response","40","277907","0.0-2.0-1.0-4.0-0.0","10","1","2022-04-01 06:16:36","c79472ad15d8b617a4d57d5bf56a810f","101.186.6.238","Mozilla/5.0 (Windows NT 10.0; Win64; x64) AppleWebKit/537.36 (KHTML, like Gecko) Chrome/99.0.4844.84 Safari/537.36","WebKit","Chrome","99.0.4844.84","Windows","10.0","1771.0999999046326","f","","","
                      <div class=""row"">

                          <div class=""column"">
                              <div class=""orange""></div>
                              <div class=""leftChoiceText"">
                                  <p style=""font-size: 32px""><b>F</b></p>
                              </div>
                          </div>

                          <div class=""column"">
                              <div class=""pink""></div>
                              <div class=""rightChoiceText"">
                                  <p style=""font-size: 32px""><b>J</b></p>
                              </div>
                          </div>

                      </div>

                      <div class=""centeredTop"">
                          Which colour do you<br>
                          predict will win?
                      </div>","O_4_3_P",""
"","","","","","html-keyboard-response","41","279412","0.0-2.0-1.0-4.0-1.0","10","1","2022-04-01 06:16:36","c79472ad15d8b617a4d57d5bf56a810f","101.186.6.238","Mozilla/5.0 (Windows NT 10.0; Win64; x64) AppleWebKit/537.36 (KHTML, like Gecko) Chrome/99.0.4844.84 Safari/537.36","WebKit","Chrome","99.0.4844.84","Windows","10.0","null","null","","","<p style=""font-size:64px;"">+</p>","O_4_3_P",""
"","","","","","html-keyboard-response","42","279816","0.0-2.0-2.0-0.0-0.0","10","1","2022-04-01 06:16:36","c79472ad15d8b617a4d57d5bf56a810f","101.186.6.238","Mozilla/5.0 (Windows NT 10.0; Win64; x64) AppleWebKit/537.36 (KHTML, like Gecko) Chrome/99.0.4844.84 Safari/537.36","WebKit","Chrome","99.0.4844.84","Windows","10.0","null","null","","","<p style=""font-size:64px;"">+</p>","P_6_4_O",""
"","","","","","html-keyboard-response","43","281072","0.0-2.0-2.0-0.0-1.0","10","1","2022-04-01 06:16:36","c79472ad15d8b617a4d57d5bf56a810f","101.186.6.238","Mozilla/5.0 (Windows NT 10.0; Win64; x64) AppleWebKit/537.36 (KHTML, like Gecko) Chrome/99.0.4844.84 Safari/537.36","WebKit","Chrome","99.0.4844.84","Windows","10.0","null","null","","","
                        <div class=pink>
                        <div class=""centered"">
                            <p style=""font-size: 24px""><b>54%</b></p>
                        </div>","P_6_4_O",""
"","","","","","html-keyboard-response","44","281476","0.0-2.0-2.0-0.0-0.1","10","1","2022-04-01 06:16:36","c79472ad15d8b617a4d57d5bf56a810f","101.186.6.238","Mozilla/5.0 (Windows NT 10.0; Win64; x64) AppleWebKit/537.36 (KHTML, like Gecko) Chrome/99.0.4844.84 Safari/537.36","WebKit","Chrome","99.0.4844.84","Windows","10.0","null","null","","","<p style=""font-size:64px;"">+</p>","P_6_4_O",""
"","","","","","html-keyboard-response","45","282731","0.0-2.0-2.0-0.0-1.1","10","1","2022-04-01 06:16:36","c79472ad15d8b617a4d57d5bf56a810f","101.186.6.238","Mozilla/5.0 (Windows NT 10.0; Win64; x64) AppleWebKit/537.36 (KHTML, like Gecko) Chrome/99.0.4844.84 Safari/537.36","WebKit","Chrome","99.0.4844.84","Windows","10.0","null","null","","","
                        <div class=pink>
                        <div class=""centered"">
                            <p style=""font-size: 24px""><b>54%</b></p>
                        </div>","P_6_4_O",""
"","","","","","html-keyboard-response","46","283139","0.0-2.0-2.0-0.0-0.2","10","1","2022-04-01 06:16:36","c79472ad15d8b617a4d57d5bf56a810f","101.186.6.238","Mozilla/5.0 (Windows NT 10.0; Win64; x64) AppleWebKit/537.36 (KHTML, like Gecko) Chrome/99.0.4844.84 Safari/537.36","WebKit","Chrome","99.0.4844.84","Windows","10.0","null","null","","","<p style=""font-size:64px;"">+</p>","P_6_4_O",""
"","","","","","html-keyboard-response","47","284398","0.0-2.0-2.0-0.0-1.2","10","1","2022-04-01 06:16:36","c79472ad15d8b617a4d57d5bf56a810f","101.186.6.238","Mozilla/5.0 (Windows NT 10.0; Win64; x64) AppleWebKit/537.36 (KHTML, like Gecko) Chrome/99.0.4844.84 Safari/537.36","WebKit","Chrome","99.0.4844.84","Windows","10.0","null","null","","","
                        <div class=orange>
                        <div class=""centered"">
                            <p style=""font-size: 24px""><b>52%</b></p>
                        </div>","P_6_4_O",""
"","","","","","html-keyboard-response","48","284801","0.0-2.0-2.0-0.0-0.3","10","1","2022-04-01 06:16:36","c79472ad15d8b617a4d57d5bf56a810f","101.186.6.238","Mozilla/5.0 (Windows NT 10.0; Win64; x64) AppleWebKit/537.36 (KHTML, like Gecko) Chrome/99.0.4844.84 Safari/537.36","WebKit","Chrome","99.0.4844.84","Windows","10.0","null","null","","","<p style=""font-size:64px;"">+</p>","P_6_4_O",""
"","","","","","html-keyboard-response","49","286054","0.0-2.0-2.0-0.0-1.3","10","1","2022-04-01 06:16:36","c79472ad15d8b617a4d57d5bf56a810f","101.186.6.238","Mozilla/5.0 (Windows NT 10.0; Win64; x64) AppleWebKit/537.36 (KHTML, like Gecko) Chrome/99.0.4844.84 Safari/537.36","WebKit","Chrome","99.0.4844.84","Windows","10.0","null","null","","","
                        <div class=orange>
                        <div class=""centered"">
                            <p style=""font-size: 24px""><b>52%</b></p>
                        </div>","P_6_4_O",""
"","","","","","html-keyboard-response","50","286457","0.0-2.0-2.0-0.0-0.4","10","1","2022-04-01 06:16:36","c79472ad15d8b617a4d57d5bf56a810f","101.186.6.238","Mozilla/5.0 (Windows NT 10.0; Win64; x64) AppleWebKit/537.36 (KHTML, like Gecko) Chrome/99.0.4844.84 Safari/537.36","WebKit","Chrome","99.0.4844.84","Windows","10.0","null","null","","","<p style=""font-size:64px;"">+</p>","P_6_4_O",""
"","","","","","html-keyboard-response","51","287713","0.0-2.0-2.0-0.0-1.4","10","1","2022-04-01 06:16:36","c79472ad15d8b617a4d57d5bf56a810f","101.186.6.238","Mozilla/5.0 (Windows NT 10.0; Win64; x64) AppleWebKit/537.36 (KHTML, like Gecko) Chrome/99.0.4844.84 Safari/537.36","WebKit","Chrome","99.0.4844.84","Windows","10.0","null","null","","","
                        <div class=pink>
                        <div class=""centered"">
                            <p style=""font-size: 24px""><b>55%</b></p>
                        </div>","P_6_4_O",""
"","","","","","html-keyboard-response","52","288115","0.0-2.0-2.0-0.0-0.5","10","1","2022-04-01 06:16:36","c79472ad15d8b617a4d57d5bf56a810f","101.186.6.238","Mozilla/5.0 (Windows NT 10.0; Win64; x64) AppleWebKit/537.36 (KHTML, like Gecko) Chrome/99.0.4844.84 Safari/537.36","WebKit","Chrome","99.0.4844.84","Windows","10.0","null","null","","","<p style=""font-size:64px;"">+</p>","P_6_4_O",""
"","","","","","html-keyboard-response","53","289367","0.0-2.0-2.0-0.0-1.5","10","1","2022-04-01 06:16:36","c79472ad15d8b617a4d57d5bf56a810f","101.186.6.238","Mozilla/5.0 (Windows NT 10.0; Win64; x64) AppleWebKit/537.36 (KHTML, like Gecko) Chrome/99.0.4844.84 Safari/537.36","WebKit","Chrome","99.0.4844.84","Windows","10.0","null","null","","","
                        <div class=orange>
                        <div class=""centered"">
                            <p style=""font-size: 24px""><b>53%</b></p>
                        </div>","P_6_4_O",""
"","","","","","html-keyboard-response","54","289769","0.0-2.0-2.0-1.0-0.0","10","1","2022-04-01 06:16:36","c79472ad15d8b617a4d57d5bf56a810f","101.186.6.238","Mozilla/5.0 (Windows NT 10.0; Win64; x64) AppleWebKit/537.36 (KHTML, like Gecko) Chrome/99.0.4844.84 Safari/537.36","WebKit","Chrome","99.0.4844.84","Windows","10.0","null","null","","","<p style=""font-size:64px;"">+</p>","P_6_4_O",""
"","","","","","html-keyboard-response","55","291023","0.0-2.0-2.0-1.0-1.0","10","1","2022-04-01 06:16:36","c79472ad15d8b617a4d57d5bf56a810f","101.186.6.238","Mozilla/5.0 (Windows NT 10.0; Win64; x64) AppleWebKit/537.36 (KHTML, like Gecko) Chrome/99.0.4844.84 Safari/537.36","WebKit","Chrome","99.0.4844.84","Windows","10.0","null","null","","","
                        <div class=""orange"">
                        <div class=""centered"">
                            <p style=""font-size: 24px""><b>50%</b></p>
                        </div>","P_6_4_O",""
"","","","","","html-slider-response","56","292746","0.0-2.0-2.0-2.0","10","1","2022-04-01 06:16:36","c79472ad15d8b617a4d57d5bf56a810f","101.186.6.238","Mozilla/5.0 (Windows NT 10.0; Win64; x64) AppleWebKit/537.36 (KHTML, like Gecko) Chrome/99.0.4844.84 Safari/537.36","WebKit","Chrome","99.0.4844.84","Windows","10.0","1713.7000000476837","0","","","<div style=""width: 500px; height: 100px;""><p>Place your bid for more information.</p></div>","infoBid","20"
"","","","","","html-keyboard-response","57","293149","0.0-2.0-2.0-3.0-0.0","10","1","2022-04-01 06:16:36","c79472ad15d8b617a4d57d5bf56a810f","101.186.6.238","Mozilla/5.0 (Windows NT 10.0; Win64; x64) AppleWebKit/537.36 (KHTML, like Gecko) Chrome/99.0.4844.84 Safari/537.36","WebKit","Chrome","99.0.4844.84","Windows","10.0","null","null","","","<p style=""font-size:64px;"">+</p>","P_6_4_O",""
"","","","","","html-keyboard-response","58","294402","0.0-2.0-2.0-3.0-1.0","10","1","2022-04-01 06:16:36","c79472ad15d8b617a4d57d5bf56a810f","101.186.6.238","Mozilla/5.0 (Windows NT 10.0; Win64; x64) AppleWebKit/537.36 (KHTML, like Gecko) Chrome/99.0.4844.84 Safari/537.36","WebKit","Chrome","99.0.4844.84","Windows","10.0","null","null","","","<div class=""grey"">
                <div class=""centered"">
                    <p style=""font-size: 24px""><b>???</b></p>
                </div>","P_6_4_O",""
"","","","","","html-keyboard-response","59","296764","0.0-2.0-2.0-4.0-0.0","10","1","2022-04-01 06:16:36","c79472ad15d8b617a4d57d5bf56a810f","101.186.6.238","Mozilla/5.0 (Windows NT 10.0; Win64; x64) AppleWebKit/537.36 (KHTML, like Gecko) Chrome/99.0.4844.84 Safari/537.36","WebKit","Chrome","99.0.4844.84","Windows","10.0","2358.5","j","","","
                      <div class=""row"">

                          <div class=""column"">
                              <div class=""orange""></div>
                              <div class=""leftChoiceText"">
                                  <p style=""font-size: 32px""><b>F</b></p>
                              </div>
                          </div>

                          <div class=""column"">
                              <div class=""pink""></div>
                              <div class=""rightChoiceText"">
                                  <p style=""font-size: 32px""><b>J</b></p>
                              </div>
                          </div>

                      </div>

                      <div class=""centeredTop"">
                          Which colour do you<br>
                          predict will win?
                      </div>","P_6_4_O",""
"","","","","","html-keyboard-response","60","298271","0.0-2.0-2.0-4.0-1.0","10","1","2022-04-01 06:16:36","c79472ad15d8b617a4d57d5bf56a810f","101.186.6.238","Mozilla/5.0 (Windows NT 10.0; Win64; x64) AppleWebKit/537.36 (KHTML, like Gecko) Chrome/99.0.4844.84 Safari/537.36","WebKit","Chrome","99.0.4844.84","Windows","10.0","null","null","","","<p style=""font-size:64px;"">+</p>","P_6_4_O",""
"","","","","","html-keyboard-response","61","298675","0.0-2.0-3.0-0.0-0.0","10","1","2022-04-01 06:16:36","c79472ad15d8b617a4d57d5bf56a810f","101.186.6.238","Mozilla/5.0 (Windows NT 10.0; Win64; x64) AppleWebKit/537.36 (KHTML, like Gecko) Chrome/99.0.4844.84 Safari/537.36","WebKit","Chrome","99.0.4844.84","Windows","10.0","null","null","","","<p style=""font-size:64px;"">+</p>","O_2_3_P",""
"","","","","","html-keyboard-response","62","299935","0.0-2.0-3.0-0.0-1.0","10","1","2022-04-01 06:16:36","c79472ad15d8b617a4d57d5bf56a810f","101.186.6.238","Mozilla/5.0 (Windows NT 10.0; Win64; x64) AppleWebKit/537.36 (KHTML, like Gecko) Chrome/99.0.4844.84 Safari/537.36","WebKit","Chrome","99.0.4844.84","Windows","10.0","null","null","","","
                        <div class=pink>
                        <div class=""centered"">
                            <p style=""font-size: 24px""><b>52%</b></p>
                        </div>","O_2_3_P",""
"","","","","","html-keyboard-response","63","300343","0.0-2.0-3.0-0.0-0.1","10","1","2022-04-01 06:16:36","c79472ad15d8b617a4d57d5bf56a810f","101.186.6.238","Mozilla/5.0 (Windows NT 10.0; Win64; x64) AppleWebKit/537.36 (KHTML, like Gecko) Chrome/99.0.4844.84 Safari/537.36","WebKit","Chrome","99.0.4844.84","Windows","10.0","null","null","","","<p style=""font-size:64px;"">+</p>","O_2_3_P",""
"","","","","","html-keyboard-response","64","301597","0.0-2.0-3.0-0.0-1.1","10","1","2022-04-01 06:16:36","c79472ad15d8b617a4d57d5bf56a810f","101.186.6.238","Mozilla/5.0 (Windows NT 10.0; Win64; x64) AppleWebKit/537.36 (KHTML, like Gecko) Chrome/99.0.4844.84 Safari/537.36","WebKit","Chrome","99.0.4844.84","Windows","10.0","null","null","","","
                        <div class=pink>
                        <div class=""centered"">
                            <p style=""font-size: 24px""><b>52%</b></p>
                        </div>","O_2_3_P",""
"","","","","","html-keyboard-response","65","302011","0.0-2.0-3.0-0.0-0.2","10","1","2022-04-01 06:16:36","c79472ad15d8b617a4d57d5bf56a810f","101.186.6.238","Mozilla/5.0 (Windows NT 10.0; Win64; x64) AppleWebKit/537.36 (KHTML, like Gecko) Chrome/99.0.4844.84 Safari/537.36","WebKit","Chrome","99.0.4844.84","Windows","10.0","null","null","","","<p style=""font-size:64px;"">+</p>","O_2_3_P",""
"","","","","","html-keyboard-response","66","303265","0.0-2.0-3.0-0.0-1.2","10","1","2022-04-01 06:16:36","c79472ad15d8b617a4d57d5bf56a810f","101.186.6.238","Mozilla/5.0 (Windows NT 10.0; Win64; x64) AppleWebKit/537.36 (KHTML, like Gecko) Chrome/99.0.4844.84 Safari/537.36","WebKit","Chrome","99.0.4844.84","Windows","10.0","null","null","","","
                        <div class=pink>
                        <div class=""centered"">
                            <p style=""font-size: 24px""><b>54%</b></p>
                        </div>","O_2_3_P",""
"","","","","","html-keyboard-response","67","303667","0.0-2.0-3.0-0.0-0.3","10","1","2022-04-01 06:16:36","c79472ad15d8b617a4d57d5bf56a810f","101.186.6.238","Mozilla/5.0 (Windows NT 10.0; Win64; x64) AppleWebKit/537.36 (KHTML, like Gecko) Chrome/99.0.4844.84 Safari/537.36","WebKit","Chrome","99.0.4844.84","Windows","10.0","null","null","","","<p style=""font-size:64px;"">+</p>","O_2_3_P",""
"","","","","","html-keyboard-response","68","304920","0.0-2.0-3.0-0.0-1.3","10","1","2022-04-01 06:16:36","c79472ad15d8b617a4d57d5bf56a810f","101.186.6.238","Mozilla/5.0 (Windows NT 10.0; Win64; x64) AppleWebKit/537.36 (KHTML, like Gecko) Chrome/99.0.4844.84 Safari/537.36","WebKit","Chrome","99.0.4844.84","Windows","10.0","null","null","","","
                        <div class=orange>
                        <div class=""centered"">
                            <p style=""font-size: 24px""><b>53%</b></p>
                        </div>","O_2_3_P",""
"","","","","","html-keyboard-response","69","305325","0.0-2.0-3.0-0.0-0.4","10","1","2022-04-01 06:16:36","c79472ad15d8b617a4d57d5bf56a810f","101.186.6.238","Mozilla/5.0 (Windows NT 10.0; Win64; x64) AppleWebKit/537.36 (KHTML, like Gecko) Chrome/99.0.4844.84 Safari/537.36","WebKit","Chrome","99.0.4844.84","Windows","10.0","null","null","","","<p style=""font-size:64px;"">+</p>","O_2_3_P",""
"","","","","","html-keyboard-response","70","306581","0.0-2.0-3.0-0.0-1.4","10","1","2022-04-01 06:16:36","c79472ad15d8b617a4d57d5bf56a810f","101.186.6.238","Mozilla/5.0 (Windows NT 10.0; Win64; x64) AppleWebKit/537.36 (KHTML, like Gecko) Chrome/99.0.4844.84 Safari/537.36","WebKit","Chrome","99.0.4844.84","Windows","10.0","null","null","","","
                        <div class=orange>
                        <div class=""centered"">
                            <p style=""font-size: 24px""><b>53%</b></p>
                        </div>","O_2_3_P",""
"","","","","","html-keyboard-response","71","306984","0.0-2.0-3.0-0.0-0.5","10","1","2022-04-01 06:16:36","c79472ad15d8b617a4d57d5bf56a810f","101.186.6.238","Mozilla/5.0 (Windows NT 10.0; Win64; x64) AppleWebKit/537.36 (KHTML, like Gecko) Chrome/99.0.4844.84 Safari/537.36","WebKit","Chrome","99.0.4844.84","Windows","10.0","null","null","","","<p style=""font-size:64px;"">+</p>","O_2_3_P",""
"","","","","","html-keyboard-response","72","308236","0.0-2.0-3.0-0.0-1.5","10","1","2022-04-01 06:16:36","c79472ad15d8b617a4d57d5bf56a810f","101.186.6.238","Mozilla/5.0 (Windows NT 10.0; Win64; x64) AppleWebKit/537.36 (KHTML, like Gecko) Chrome/99.0.4844.84 Safari/537.36","WebKit","Chrome","99.0.4844.84","Windows","10.0","null","null","","","
                        <div class=orange>
                        <div class=""centered"">
                            <p style=""font-size: 24px""><b>54%</b></p>
                        </div>","O_2_3_P",""
"","","","","","html-keyboard-response","73","308641","0.0-2.0-3.0-1.0-0.0","10","1","2022-04-01 06:16:36","c79472ad15d8b617a4d57d5bf56a810f","101.186.6.238","Mozilla/5.0 (Windows NT 10.0; Win64; x64) AppleWebKit/537.36 (KHTML, like Gecko) Chrome/99.0.4844.84 Safari/537.36","WebKit","Chrome","99.0.4844.84","Windows","10.0","null","null","","","<p style=""font-size:64px;"">+</p>","O_2_3_P",""
"","","","","","html-keyboard-response","74","309895","0.0-2.0-3.0-1.0-1.0","10","1","2022-04-01 06:16:36","c79472ad15d8b617a4d57d5bf56a810f","101.186.6.238","Mozilla/5.0 (Windows NT 10.0; Win64; x64) AppleWebKit/537.36 (KHTML, like Gecko) Chrome/99.0.4844.84 Safari/537.36","WebKit","Chrome","99.0.4844.84","Windows","10.0","null","null","","","
                        <div class=""pink"">
                        <div class=""centered"">
                            <p style=""font-size: 24px""><b>50%</b></p>
                        </div>","O_2_3_P",""
"","","","","","html-slider-response","75","313108","0.0-2.0-3.0-2.0","10","1","2022-04-01 06:16:36","c79472ad15d8b617a4d57d5bf56a810f","101.186.6.238","Mozilla/5.0 (Windows NT 10.0; Win64; x64) AppleWebKit/537.36 (KHTML, like Gecko) Chrome/99.0.4844.84 Safari/537.36","WebKit","Chrome","99.0.4844.84","Windows","10.0","3210.100000143051","37","","","<div style=""width: 500px; height: 100px;""><p>Place your bid for more information.</p></div>","infoBid","34"
"","","","","","html-keyboard-response","76","313511","0.0-2.0-3.0-3.0-0.0","10","1","2022-04-01 06:16:36","c79472ad15d8b617a4d57d5bf56a810f","101.186.6.238","Mozilla/5.0 (Windows NT 10.0; Win64; x64) AppleWebKit/537.36 (KHTML, like Gecko) Chrome/99.0.4844.84 Safari/537.36","WebKit","Chrome","99.0.4844.84","Windows","10.0","null","null","","","<p style=""font-size:64px;"">+</p>","O_2_3_P",""
"","","","","","html-keyboard-response","77","314766","0.0-2.0-3.0-3.0-1.0","10","1","2022-04-01 06:16:36","c79472ad15d8b617a4d57d5bf56a810f","101.186.6.238","Mozilla/5.0 (Windows NT 10.0; Win64; x64) AppleWebKit/537.36 (KHTML, like Gecko) Chrome/99.0.4844.84 Safari/537.36","WebKit","Chrome","99.0.4844.84","Windows","10.0","null","null","","","<div class=orange>
                <div class=""centered"">
                    <p style=""font-size: 24px""><b>51%</b></p>
                </div>","O_2_3_P",""
"","","","","","html-keyboard-response","78","316926","0.0-2.0-3.0-4.0-0.0","10","1","2022-04-01 06:16:36","c79472ad15d8b617a4d57d5bf56a810f","101.186.6.238","Mozilla/5.0 (Windows NT 10.0; Win64; x64) AppleWebKit/537.36 (KHTML, like Gecko) Chrome/99.0.4844.84 Safari/537.36","WebKit","Chrome","99.0.4844.84","Windows","10.0","2153.4000000953674","f","","","
                      <div class=""row"">

                          <div class=""column"">
                              <div class=""orange""></div>
                              <div class=""leftChoiceText"">
                                  <p style=""font-size: 32px""><b>F</b></p>
                              </div>
                          </div>

                          <div class=""column"">
                              <div class=""pink""></div>
                              <div class=""rightChoiceText"">
                                  <p style=""font-size: 32px""><b>J</b></p>
                              </div>
                          </div>

                      </div>

                      <div class=""centeredTop"">
                          Which colour do you<br>
                          predict will win?
                      </div>","O_2_3_P",""
"","","","","","html-keyboard-response","79","318435","0.0-2.0-3.0-4.0-1.0","10","1","2022-04-01 06:16:36","c79472ad15d8b617a4d57d5bf56a810f","101.186.6.238","Mozilla/5.0 (Windows NT 10.0; Win64; x64) AppleWebKit/537.36 (KHTML, like Gecko) Chrome/99.0.4844.84 Safari/537.36","WebKit","Chrome","99.0.4844.84","Windows","10.0","null","null","","","<p style=""font-size:64px;"">+</p>","O_2_3_P",""
"","","","","","html-keyboard-response","80","318837","0.0-2.0-4.0-0.0-0.0","10","1","2022-04-01 06:16:36","c79472ad15d8b617a4d57d5bf56a810f","101.186.6.238","Mozilla/5.0 (Windows NT 10.0; Win64; x64) AppleWebKit/537.36 (KHTML, like Gecko) Chrome/99.0.4844.84 Safari/537.36","WebKit","Chrome","99.0.4844.84","Windows","10.0","null","null","","","<p style=""font-size:64px;"">+</p>","P_4_2_P",""
"","","","","","html-keyboard-response","81","320093","0.0-2.0-4.0-0.0-1.0","10","1","2022-04-01 06:16:36","c79472ad15d8b617a4d57d5bf56a810f","101.186.6.238","Mozilla/5.0 (Windows NT 10.0; Win64; x64) AppleWebKit/537.36 (KHTML, like Gecko) Chrome/99.0.4844.84 Safari/537.36","WebKit","Chrome","99.0.4844.84","Windows","10.0","null","null","","","
                        <div class=orange>
                        <div class=""centered"">
                            <p style=""font-size: 24px""><b>52%</b></p>
                        </div>","P_4_2_P",""
"","","","","","html-keyboard-response","82","320496","0.0-2.0-4.0-0.0-0.1","10","1","2022-04-01 06:16:36","c79472ad15d8b617a4d57d5bf56a810f","101.186.6.238","Mozilla/5.0 (Windows NT 10.0; Win64; x64) AppleWebKit/537.36 (KHTML, like Gecko) Chrome/99.0.4844.84 Safari/537.36","WebKit","Chrome","99.0.4844.84","Windows","10.0","null","null","","","<p style=""font-size:64px;"">+</p>","P_4_2_P",""
"","","","","","html-keyboard-response","83","321750","0.0-2.0-4.0-0.0-1.1","10","1","2022-04-01 06:16:36","c79472ad15d8b617a4d57d5bf56a810f","101.186.6.238","Mozilla/5.0 (Windows NT 10.0; Win64; x64) AppleWebKit/537.36 (KHTML, like Gecko) Chrome/99.0.4844.84 Safari/537.36","WebKit","Chrome","99.0.4844.84","Windows","10.0","null","null","","","
                        <div class=pink>
                        <div class=""centered"">
                            <p style=""font-size: 24px""><b>54%</b></p>
                        </div>","P_4_2_P",""
"","","","","","html-keyboard-response","84","322154","0.0-2.0-4.0-0.0-0.2","10","1","2022-04-01 06:16:36","c79472ad15d8b617a4d57d5bf56a810f","101.186.6.238","Mozilla/5.0 (Windows NT 10.0; Win64; x64) AppleWebKit/537.36 (KHTML, like Gecko) Chrome/99.0.4844.84 Safari/537.36","WebKit","Chrome","99.0.4844.84","Windows","10.0","null","null","","","<p style=""font-size:64px;"">+</p>","P_4_2_P",""
"","","","","","html-keyboard-response","85","323407","0.0-2.0-4.0-0.0-1.2","10","1","2022-04-01 06:16:36","c79472ad15d8b617a4d57d5bf56a810f","101.186.6.238","Mozilla/5.0 (Windows NT 10.0; Win64; x64) AppleWebKit/537.36 (KHTML, like Gecko) Chrome/99.0.4844.84 Safari/537.36","WebKit","Chrome","99.0.4844.84","Windows","10.0","null","null","","","
                        <div class=pink>
                        <div class=""centered"">
                            <p style=""font-size: 24px""><b>54%</b></p>
                        </div>","P_4_2_P",""
"","","","","","html-keyboard-response","86","323810","0.0-2.0-4.0-0.0-0.3","10","1","2022-04-01 06:16:36","c79472ad15d8b617a4d57d5bf56a810f","101.186.6.238","Mozilla/5.0 (Windows NT 10.0; Win64; x64) AppleWebKit/537.36 (KHTML, like Gecko) Chrome/99.0.4844.84 Safari/537.36","WebKit","Chrome","99.0.4844.84","Windows","10.0","null","null","","","<p style=""font-size:64px;"">+</p>","P_4_2_P",""
"","","","","","html-keyboard-response","87","325065","0.0-2.0-4.0-0.0-1.3","10","1","2022-04-01 06:16:36","c79472ad15d8b617a4d57d5bf56a810f","101.186.6.238","Mozilla/5.0 (Windows NT 10.0; Win64; x64) AppleWebKit/537.36 (KHTML, like Gecko) Chrome/99.0.4844.84 Safari/537.36","WebKit","Chrome","99.0.4844.84","Windows","10.0","null","null","","","
                        <div class=orange>
                        <div class=""centered"">
                            <p style=""font-size: 24px""><b>51%</b></p>
                        </div>","P_4_2_P",""
"","","","","","html-keyboard-response","88","325468","0.0-2.0-4.0-0.0-0.4","10","1","2022-04-01 06:16:36","c79472ad15d8b617a4d57d5bf56a810f","101.186.6.238","Mozilla/5.0 (Windows NT 10.0; Win64; x64) AppleWebKit/537.36 (KHTML, like Gecko) Chrome/99.0.4844.84 Safari/537.36","WebKit","Chrome","99.0.4844.84","Windows","10.0","null","null","","","<p style=""font-size:64px;"">+</p>","P_4_2_P",""
"","","","","","html-keyboard-response","89","326722","0.0-2.0-4.0-0.0-1.4","10","1","2022-04-01 06:16:36","c79472ad15d8b617a4d57d5bf56a810f","101.186.6.238","Mozilla/5.0 (Windows NT 10.0; Win64; x64) AppleWebKit/537.36 (KHTML, like Gecko) Chrome/99.0.4844.84 Safari/537.36","WebKit","Chrome","99.0.4844.84","Windows","10.0","null","null","","","
                        <div class=pink>
                        <div class=""centered"">
                            <p style=""font-size: 24px""><b>51%</b></p>
                        </div>","P_4_2_P",""
"","","","","","html-keyboard-response","90","327125","0.0-2.0-4.0-0.0-0.5","10","1","2022-04-01 06:16:36","c79472ad15d8b617a4d57d5bf56a810f","101.186.6.238","Mozilla/5.0 (Windows NT 10.0; Win64; x64) AppleWebKit/537.36 (KHTML, like Gecko) Chrome/99.0.4844.84 Safari/537.36","WebKit","Chrome","99.0.4844.84","Windows","10.0","null","null","","","<p style=""font-size:64px;"">+</p>","P_4_2_P",""
"","","","","","html-keyboard-response","91","328380","0.0-2.0-4.0-0.0-1.5","10","1","2022-04-01 06:16:36","c79472ad15d8b617a4d57d5bf56a810f","101.186.6.238","Mozilla/5.0 (Windows NT 10.0; Win64; x64) AppleWebKit/537.36 (KHTML, like Gecko) Chrome/99.0.4844.84 Safari/537.36","WebKit","Chrome","99.0.4844.84","Windows","10.0","null","null","","","
                        <div class=orange>
                        <div class=""centered"">
                            <p style=""font-size: 24px""><b>52%</b></p>
                        </div>","P_4_2_P",""
"","","","","","html-keyboard-response","92","328788","0.0-2.0-4.0-1.0-0.0","10","1","2022-04-01 06:16:36","c79472ad15d8b617a4d57d5bf56a810f","101.186.6.238","Mozilla/5.0 (Windows NT 10.0; Win64; x64) AppleWebKit/537.36 (KHTML, like Gecko) Chrome/99.0.4844.84 Safari/537.36","WebKit","Chrome","99.0.4844.84","Windows","10.0","null","null","","","<p style=""font-size:64px;"">+</p>","P_4_2_P",""
"","","","","","html-keyboard-response","93","330042","0.0-2.0-4.0-1.0-1.0","10","1","2022-04-01 06:16:36","c79472ad15d8b617a4d57d5bf56a810f","101.186.6.238","Mozilla/5.0 (Windows NT 10.0; Win64; x64) AppleWebKit/537.36 (KHTML, like Gecko) Chrome/99.0.4844.84 Safari/537.36","WebKit","Chrome","99.0.4844.84","Windows","10.0","null","null","","","
                        <div class=""pink"">
                        <div class=""centered"">
                            <p style=""font-size: 24px""><b>50%</b></p>
                        </div>","P_4_2_P",""
"","","","","","html-slider-response","94","332934","0.0-2.0-4.0-2.0","10","1","2022-04-01 06:16:36","c79472ad15d8b617a4d57d5bf56a810f","101.186.6.238","Mozilla/5.0 (Windows NT 10.0; Win64; x64) AppleWebKit/537.36 (KHTML, like Gecko) Chrome/99.0.4844.84 Safari/537.36","WebKit","Chrome","99.0.4844.84","Windows","10.0","2889.0999999046326","18","","","<div style=""width: 500px; height: 100px;""><p>Place your bid for more information.</p></div>","infoBid","33"
"","","","","","html-keyboard-response","95","333337","0.0-2.0-4.0-3.0-0.0","10","1","2022-04-01 06:16:36","c79472ad15d8b617a4d57d5bf56a810f","101.186.6.238","Mozilla/5.0 (Windows NT 10.0; Win64; x64) AppleWebKit/537.36 (KHTML, like Gecko) Chrome/99.0.4844.84 Safari/537.36","WebKit","Chrome","99.0.4844.84","Windows","10.0","null","null","","","<p style=""font-size:64px;"">+</p>","P_4_2_P",""
"","","","","","html-keyboard-response","96","334589","0.0-2.0-4.0-3.0-1.0","10","1","2022-04-01 06:16:36","c79472ad15d8b617a4d57d5bf56a810f","101.186.6.238","Mozilla/5.0 (Windows NT 10.0; Win64; x64) AppleWebKit/537.36 (KHTML, like Gecko) Chrome/99.0.4844.84 Safari/537.36","WebKit","Chrome","99.0.4844.84","Windows","10.0","null","null","","","<div class=""grey"">
                <div class=""centered"">
                    <p style=""font-size: 24px""><b>???</b></p>
                </div>","P_4_2_P",""
"","","","","","html-keyboard-response","97","336026","0.0-2.0-4.0-4.0-0.0","10","1","2022-04-01 06:16:36","c79472ad15d8b617a4d57d5bf56a810f","101.186.6.238","Mozilla/5.0 (Windows NT 10.0; Win64; x64) AppleWebKit/537.36 (KHTML, like Gecko) Chrome/99.0.4844.84 Safari/537.36","WebKit","Chrome","99.0.4844.84","Windows","10.0","1430.0999999046326","j","","","
                      <div class=""row"">

                          <div class=""column"">
                              <div class=""orange""></div>
                              <div class=""leftChoiceText"">
                                  <p style=""font-size: 32px""><b>F</b></p>
                              </div>
                          </div>

                          <div class=""column"">
                              <div class=""pink""></div>
                              <div class=""rightChoiceText"">
                                  <p style=""font-size: 32px""><b>J</b></p>
                              </div>
                          </div>

                      </div>

                      <div class=""centeredTop"">
                          Which colour do you<br>
                          predict will win?
                      </div>","P_4_2_P",""
"","","","","","html-keyboard-response","98","337531","0.0-2.0-4.0-4.0-1.0","10","1","2022-04-01 06:16:36","c79472ad15d8b617a4d57d5bf56a810f","101.186.6.238","Mozilla/5.0 (Windows NT 10.0; Win64; x64) AppleWebKit/537.36 (KHTML, like Gecko) Chrome/99.0.4844.84 Safari/537.36","WebKit","Chrome","99.0.4844.84","Windows","10.0","null","null","","","<p style=""font-size:64px;"">+</p>","P_4_2_P",""
"","","","","","html-keyboard-response","99","337935","0.0-2.0-5.0-0.0-0.0","10","1","2022-04-01 06:16:36","c79472ad15d8b617a4d57d5bf56a810f","101.186.6.238","Mozilla/5.0 (Windows NT 10.0; Win64; x64) AppleWebKit/537.36 (KHTML, like Gecko) Chrome/99.0.4844.84 Safari/537.36","WebKit","Chrome","99.0.4844.84","Windows","10.0","null","null","","","<p style=""font-size:64px;"">+</p>","P_4_6_O",""
"","","","","","html-keyboard-response","100","339188","0.0-2.0-5.0-0.0-1.0","10","1","2022-04-01 06:16:36","c79472ad15d8b617a4d57d5bf56a810f","101.186.6.238","Mozilla/5.0 (Windows NT 10.0; Win64; x64) AppleWebKit/537.36 (KHTML, like Gecko) Chrome/99.0.4844.84 Safari/537.36","WebKit","Chrome","99.0.4844.84","Windows","10.0","null","null","","","
                        <div class=orange>
                        <div class=""centered"">
                            <p style=""font-size: 24px""><b>54%</b></p>
                        </div>","P_4_6_O",""
"","","","","","html-keyboard-response","101","339591","0.0-2.0-5.0-0.0-0.1","10","1","2022-04-01 06:16:36","c79472ad15d8b617a4d57d5bf56a810f","101.186.6.238","Mozilla/5.0 (Windows NT 10.0; Win64; x64) AppleWebKit/537.36 (KHTML, like Gecko) Chrome/99.0.4844.84 Safari/537.36","WebKit","Chrome","99.0.4844.84","Windows","10.0","null","null","","","<p style=""font-size:64px;"">+</p>","P_4_6_O",""
"","","","","","html-keyboard-response","102","340846","0.0-2.0-5.0-0.0-1.1","10","1","2022-04-01 06:16:36","c79472ad15d8b617a4d57d5bf56a810f","101.186.6.238","Mozilla/5.0 (Windows NT 10.0; Win64; x64) AppleWebKit/537.36 (KHTML, like Gecko) Chrome/99.0.4844.84 Safari/537.36","WebKit","Chrome","99.0.4844.84","Windows","10.0","null","null","","","
                        <div class=orange>
                        <div class=""centered"">
                            <p style=""font-size: 24px""><b>52%</b></p>
                        </div>","P_4_6_O",""
"","","","","","html-keyboard-response","103","341249","0.0-2.0-5.0-0.0-0.2","10","1","2022-04-01 06:16:36","c79472ad15d8b617a4d57d5bf56a810f","101.186.6.238","Mozilla/5.0 (Windows NT 10.0; Win64; x64) AppleWebKit/537.36 (KHTML, like Gecko) Chrome/99.0.4844.84 Safari/537.36","WebKit","Chrome","99.0.4844.84","Windows","10.0","null","null","","","<p style=""font-size:64px;"">+</p>","P_4_6_O",""
"","","","","","html-keyboard-response","104","342503","0.0-2.0-5.0-0.0-1.2","10","1","2022-04-01 06:16:36","c79472ad15d8b617a4d57d5bf56a810f","101.186.6.238","Mozilla/5.0 (Windows NT 10.0; Win64; x64) AppleWebKit/537.36 (KHTML, like Gecko) Chrome/99.0.4844.84 Safari/537.36","WebKit","Chrome","99.0.4844.84","Windows","10.0","null","null","","","
                        <div class=pink>
                        <div class=""centered"">
                            <p style=""font-size: 24px""><b>55%</b></p>
                        </div>","P_4_6_O",""
"","","","","","html-keyboard-response","105","342908","0.0-2.0-5.0-0.0-0.3","10","1","2022-04-01 06:16:36","c79472ad15d8b617a4d57d5bf56a810f","101.186.6.238","Mozilla/5.0 (Windows NT 10.0; Win64; x64) AppleWebKit/537.36 (KHTML, like Gecko) Chrome/99.0.4844.84 Safari/537.36","WebKit","Chrome","99.0.4844.84","Windows","10.0","null","null","","","<p style=""font-size:64px;"">+</p>","P_4_6_O",""
"","","","","","html-keyboard-response","106","344168","0.0-2.0-5.0-0.0-1.3","10","1","2022-04-01 06:16:36","c79472ad15d8b617a4d57d5bf56a810f","101.186.6.238","Mozilla/5.0 (Windows NT 10.0; Win64; x64) AppleWebKit/537.36 (KHTML, like Gecko) Chrome/99.0.4844.84 Safari/537.36","WebKit","Chrome","99.0.4844.84","Windows","10.0","null","null","","","
                        <div class=orange>
                        <div class=""centered"">
                            <p style=""font-size: 24px""><b>53%</b></p>
                        </div>","P_4_6_O",""
"","","","","","html-keyboard-response","107","344571","0.0-2.0-5.0-0.0-0.4","10","1","2022-04-01 06:16:36","c79472ad15d8b617a4d57d5bf56a810f","101.186.6.238","Mozilla/5.0 (Windows NT 10.0; Win64; x64) AppleWebKit/537.36 (KHTML, like Gecko) Chrome/99.0.4844.84 Safari/537.36","WebKit","Chrome","99.0.4844.84","Windows","10.0","null","null","","","<p style=""font-size:64px;"">+</p>","P_4_6_O",""
"","","","","","html-keyboard-response","108","345824","0.0-2.0-5.0-0.0-1.4","10","1","2022-04-01 06:16:36","c79472ad15d8b617a4d57d5bf56a810f","101.186.6.238","Mozilla/5.0 (Windows NT 10.0; Win64; x64) AppleWebKit/537.36 (KHTML, like Gecko) Chrome/99.0.4844.84 Safari/537.36","WebKit","Chrome","99.0.4844.84","Windows","10.0","null","null","","","
                        <div class=pink>
                        <div class=""centered"">
                            <p style=""font-size: 24px""><b>54%</b></p>
                        </div>","P_4_6_O",""
"","","","","","html-keyboard-response","109","346228","0.0-2.0-5.0-0.0-0.5","10","1","2022-04-01 06:16:36","c79472ad15d8b617a4d57d5bf56a810f","101.186.6.238","Mozilla/5.0 (Windows NT 10.0; Win64; x64) AppleWebKit/537.36 (KHTML, like Gecko) Chrome/99.0.4844.84 Safari/537.36","WebKit","Chrome","99.0.4844.84","Windows","10.0","null","null","","","<p style=""font-size:64px;"">+</p>","P_4_6_O",""
"","","","","","html-keyboard-response","110","347483","0.0-2.0-5.0-0.0-1.5","10","1","2022-04-01 06:16:36","c79472ad15d8b617a4d57d5bf56a810f","101.186.6.238","Mozilla/5.0 (Windows NT 10.0; Win64; x64) AppleWebKit/537.36 (KHTML, like Gecko) Chrome/99.0.4844.84 Safari/537.36","WebKit","Chrome","99.0.4844.84","Windows","10.0","null","null","","","
                        <div class=pink>
                        <div class=""centered"">
                            <p style=""font-size: 24px""><b>54%</b></p>
                        </div>","P_4_6_O",""
"","","","","","html-keyboard-response","111","347886","0.0-2.0-5.0-1.0-0.0","10","1","2022-04-01 06:16:36","c79472ad15d8b617a4d57d5bf56a810f","101.186.6.238","Mozilla/5.0 (Windows NT 10.0; Win64; x64) AppleWebKit/537.36 (KHTML, like Gecko) Chrome/99.0.4844.84 Safari/537.36","WebKit","Chrome","99.0.4844.84","Windows","10.0","null","null","","","<p style=""font-size:64px;"">+</p>","P_4_6_O",""
"","","","","","html-keyboard-response","112","349139","0.0-2.0-5.0-1.0-1.0","10","1","2022-04-01 06:16:36","c79472ad15d8b617a4d57d5bf56a810f","101.186.6.238","Mozilla/5.0 (Windows NT 10.0; Win64; x64) AppleWebKit/537.36 (KHTML, like Gecko) Chrome/99.0.4844.84 Safari/537.36","WebKit","Chrome","99.0.4844.84","Windows","10.0","null","null","","","
                        <div class=""orange"">
                        <div class=""centered"">
                            <p style=""font-size: 24px""><b>50%</b></p>
                        </div>","P_4_6_O",""
"","","","","","html-slider-response","113","354026","0.0-2.0-5.0-2.0","10","1","2022-04-01 06:16:36","c79472ad15d8b617a4d57d5bf56a810f","101.186.6.238","Mozilla/5.0 (Windows NT 10.0; Win64; x64) AppleWebKit/537.36 (KHTML, like Gecko) Chrome/99.0.4844.84 Safari/537.36","WebKit","Chrome","99.0.4844.84","Windows","10.0","4883.399999856949","31","","","<div style=""width: 500px; height: 100px;""><p>Place your bid for more information.</p></div>","infoBid","14"
"","","","","","html-keyboard-response","114","354429","0.0-2.0-5.0-3.0-0.0","10","1","2022-04-01 06:16:36","c79472ad15d8b617a4d57d5bf56a810f","101.186.6.238","Mozilla/5.0 (Windows NT 10.0; Win64; x64) AppleWebKit/537.36 (KHTML, like Gecko) Chrome/99.0.4844.84 Safari/537.36","WebKit","Chrome","99.0.4844.84","Windows","10.0","null","null","","","<p style=""font-size:64px;"">+</p>","P_4_6_O",""
"","","","","","html-keyboard-response","115","355682","0.0-2.0-5.0-3.0-1.0","10","1","2022-04-01 06:16:36","c79472ad15d8b617a4d57d5bf56a810f","101.186.6.238","Mozilla/5.0 (Windows NT 10.0; Win64; x64) AppleWebKit/537.36 (KHTML, like Gecko) Chrome/99.0.4844.84 Safari/537.36","WebKit","Chrome","99.0.4844.84","Windows","10.0","null","null","","","<div class=""grey"">
                <div class=""centered"">
                    <p style=""font-size: 24px""><b>???</b></p>
                </div>","P_4_6_O",""
"","","","","","html-keyboard-response","116","357209","0.0-2.0-5.0-4.0-0.0","10","1","2022-04-01 06:16:36","c79472ad15d8b617a4d57d5bf56a810f","101.186.6.238","Mozilla/5.0 (Windows NT 10.0; Win64; x64) AppleWebKit/537.36 (KHTML, like Gecko) Chrome/99.0.4844.84 Safari/537.36","WebKit","Chrome","99.0.4844.84","Windows","10.0","1523","j","","","
                      <div class=""row"">

                          <div class=""column"">
                              <div class=""orange""></div>
                              <div class=""leftChoiceText"">
                                  <p style=""font-size: 32px""><b>F</b></p>
                              </div>
                          </div>

                          <div class=""column"">
                              <div class=""pink""></div>
                              <div class=""rightChoiceText"">
                                  <p style=""font-size: 32px""><b>J</b></p>
                              </div>
                          </div>

                      </div>

                      <div class=""centeredTop"">
                          Which colour do you<br>
                          predict will win?
                      </div>","P_4_6_O",""
"","","","","","html-keyboard-response","117","358712","0.0-2.0-5.0-4.0-1.0","10","1","2022-04-01 06:16:36","c79472ad15d8b617a4d57d5bf56a810f","101.186.6.238","Mozilla/5.0 (Windows NT 10.0; Win64; x64) AppleWebKit/537.36 (KHTML, like Gecko) Chrome/99.0.4844.84 Safari/537.36","WebKit","Chrome","99.0.4844.84","Windows","10.0","null","null","","","<p style=""font-size:64px;"">+</p>","P_4_6_O",""
"","","","","","html-keyboard-response","118","359115","0.0-2.0-6.0-0.0-0.0","10","1","2022-04-01 06:16:36","c79472ad15d8b617a4d57d5bf56a810f","101.186.6.238","Mozilla/5.0 (Windows NT 10.0; Win64; x64) AppleWebKit/537.36 (KHTML, like Gecko) Chrome/99.0.4844.84 Safari/537.36","WebKit","Chrome","99.0.4844.84","Windows","10.0","null","null","","","<p style=""font-size:64px;"">+</p>","O_2_4_O",""
"","","","","","html-keyboard-response","119","360371","0.0-2.0-6.0-0.0-1.0","10","1","2022-04-01 06:16:36","c79472ad15d8b617a4d57d5bf56a810f","101.186.6.238","Mozilla/5.0 (Windows NT 10.0; Win64; x64) AppleWebKit/537.36 (KHTML, like Gecko) Chrome/99.0.4844.84 Safari/537.36","WebKit","Chrome","99.0.4844.84","Windows","10.0","null","null","","","
                        <div class=pink>
                        <div class=""centered"">
                            <p style=""font-size: 24px""><b>52%</b></p>
                        </div>","O_2_4_O",""
"","","","","","html-keyboard-response","120","360774","0.0-2.0-6.0-0.0-0.1","10","1","2022-04-01 06:16:36","c79472ad15d8b617a4d57d5bf56a810f","101.186.6.238","Mozilla/5.0 (Windows NT 10.0; Win64; x64) AppleWebKit/537.36 (KHTML, like Gecko) Chrome/99.0.4844.84 Safari/537.36","WebKit","Chrome","99.0.4844.84","Windows","10.0","null","null","","","<p style=""font-size:64px;"">+</p>","O_2_4_O",""
"","","","","","html-keyboard-response","121","362029","0.0-2.0-6.0-0.0-1.1","10","1","2022-04-01 06:16:36","c79472ad15d8b617a4d57d5bf56a810f","101.186.6.238","Mozilla/5.0 (Windows NT 10.0; Win64; x64) AppleWebKit/537.36 (KHTML, like Gecko) Chrome/99.0.4844.84 Safari/537.36","WebKit","Chrome","99.0.4844.84","Windows","10.0","null","null","","","
                        <div class=orange>
                        <div class=""centered"">
                            <p style=""font-size: 24px""><b>52%</b></p>
                        </div>","O_2_4_O",""
"","","","","","html-keyboard-response","122","362433","0.0-2.0-6.0-0.0-0.2","10","1","2022-04-01 06:16:36","c79472ad15d8b617a4d57d5bf56a810f","101.186.6.238","Mozilla/5.0 (Windows NT 10.0; Win64; x64) AppleWebKit/537.36 (KHTML, like Gecko) Chrome/99.0.4844.84 Safari/537.36","WebKit","Chrome","99.0.4844.84","Windows","10.0","null","null","","","<p style=""font-size:64px;"">+</p>","O_2_4_O",""
"","","","","","html-keyboard-response","123","363686","0.0-2.0-6.0-0.0-1.2","10","1","2022-04-01 06:16:36","c79472ad15d8b617a4d57d5bf56a810f","101.186.6.238","Mozilla/5.0 (Windows NT 10.0; Win64; x64) AppleWebKit/537.36 (KHTML, like Gecko) Chrome/99.0.4844.84 Safari/537.36","WebKit","Chrome","99.0.4844.84","Windows","10.0","null","null","","","
                        <div class=orange>
                        <div class=""centered"">
                            <p style=""font-size: 24px""><b>54%</b></p>
                        </div>","O_2_4_O",""
"","","","","","html-keyboard-response","124","364098","0.0-2.0-6.0-0.0-0.3","10","1","2022-04-01 06:16:36","c79472ad15d8b617a4d57d5bf56a810f","101.186.6.238","Mozilla/5.0 (Windows NT 10.0; Win64; x64) AppleWebKit/537.36 (KHTML, like Gecko) Chrome/99.0.4844.84 Safari/537.36","WebKit","Chrome","99.0.4844.84","Windows","10.0","null","null","","","<p style=""font-size:64px;"">+</p>","O_2_4_O",""
"","","","","","html-keyboard-response","125","365352","0.0-2.0-6.0-0.0-1.3","10","1","2022-04-01 06:16:36","c79472ad15d8b617a4d57d5bf56a810f","101.186.6.238","Mozilla/5.0 (Windows NT 10.0; Win64; x64) AppleWebKit/537.36 (KHTML, like Gecko) Chrome/99.0.4844.84 Safari/537.36","WebKit","Chrome","99.0.4844.84","Windows","10.0","null","null","","","
                        <div class=pink>
                        <div class=""centered"">
                            <p style=""font-size: 24px""><b>52%</b></p>
                        </div>","O_2_4_O",""
"","","","","","html-keyboard-response","126","365755","0.0-2.0-6.0-0.0-0.4","10","1","2022-04-01 06:16:36","c79472ad15d8b617a4d57d5bf56a810f","101.186.6.238","Mozilla/5.0 (Windows NT 10.0; Win64; x64) AppleWebKit/537.36 (KHTML, like Gecko) Chrome/99.0.4844.84 Safari/537.36","WebKit","Chrome","99.0.4844.84","Windows","10.0","null","null","","","<p style=""font-size:64px;"">+</p>","O_2_4_O",""
"","","","","","html-keyboard-response","127","367009","0.0-2.0-6.0-0.0-1.4","10","1","2022-04-01 06:16:36","c79472ad15d8b617a4d57d5bf56a810f","101.186.6.238","Mozilla/5.0 (Windows NT 10.0; Win64; x64) AppleWebKit/537.36 (KHTML, like Gecko) Chrome/99.0.4844.84 Safari/537.36","WebKit","Chrome","99.0.4844.84","Windows","10.0","null","null","","","
                        <div class=orange>
                        <div class=""centered"">
                            <p style=""font-size: 24px""><b>55%</b></p>
                        </div>","O_2_4_O",""
"","","","","","html-keyboard-response","128","367411","0.0-2.0-6.0-0.0-0.5","10","1","2022-04-01 06:16:36","c79472ad15d8b617a4d57d5bf56a810f","101.186.6.238","Mozilla/5.0 (Windows NT 10.0; Win64; x64) AppleWebKit/537.36 (KHTML, like Gecko) Chrome/99.0.4844.84 Safari/537.36","WebKit","Chrome","99.0.4844.84","Windows","10.0","null","null","","","<p style=""font-size:64px;"">+</p>","O_2_4_O",""
"","","","","","html-keyboard-response","129","368674","0.0-2.0-6.0-0.0-1.5","10","1","2022-04-01 06:16:36","c79472ad15d8b617a4d57d5bf56a810f","101.186.6.238","Mozilla/5.0 (Windows NT 10.0; Win64; x64) AppleWebKit/537.36 (KHTML, like Gecko) Chrome/99.0.4844.84 Safari/537.36","WebKit","Chrome","99.0.4844.84","Windows","10.0","null","null","","","
                        <div class=pink>
                        <div class=""centered"">
                            <p style=""font-size: 24px""><b>55%</b></p>
                        </div>","O_2_4_O",""
"","","","","","html-keyboard-response","130","369077","0.0-2.0-6.0-1.0-0.0","10","1","2022-04-01 06:16:36","c79472ad15d8b617a4d57d5bf56a810f","101.186.6.238","Mozilla/5.0 (Windows NT 10.0; Win64; x64) AppleWebKit/537.36 (KHTML, like Gecko) Chrome/99.0.4844.84 Safari/537.36","WebKit","Chrome","99.0.4844.84","Windows","10.0","null","null","","","<p style=""font-size:64px;"">+</p>","O_2_4_O",""
"","","","","","html-keyboard-response","131","370331","0.0-2.0-6.0-1.0-1.0","10","1","2022-04-01 06:16:36","c79472ad15d8b617a4d57d5bf56a810f","101.186.6.238","Mozilla/5.0 (Windows NT 10.0; Win64; x64) AppleWebKit/537.36 (KHTML, like Gecko) Chrome/99.0.4844.84 Safari/537.36","WebKit","Chrome","99.0.4844.84","Windows","10.0","null","null","","","
                        <div class=""orange"">
                        <div class=""centered"">
                            <p style=""font-size: 24px""><b>50%</b></p>
                        </div>","O_2_4_O",""
"","","","","","html-slider-response","132","373778","0.0-2.0-6.0-2.0","10","1","2022-04-01 06:16:36","c79472ad15d8b617a4d57d5bf56a810f","101.186.6.238","Mozilla/5.0 (Windows NT 10.0; Win64; x64) AppleWebKit/537.36 (KHTML, like Gecko) Chrome/99.0.4844.84 Safari/537.36","WebKit","Chrome","99.0.4844.84","Windows","10.0","3446.0999999046326","27","","","<div style=""width: 500px; height: 100px;""><p>Place your bid for more information.</p></div>","infoBid","25"
"","","","","","html-keyboard-response","133","374183","0.0-2.0-6.0-3.0-0.0","10","1","2022-04-01 06:16:36","c79472ad15d8b617a4d57d5bf56a810f","101.186.6.238","Mozilla/5.0 (Windows NT 10.0; Win64; x64) AppleWebKit/537.36 (KHTML, like Gecko) Chrome/99.0.4844.84 Safari/537.36","WebKit","Chrome","99.0.4844.84","Windows","10.0","null","null","","","<p style=""font-size:64px;"">+</p>","O_2_4_O",""
"","","","","","html-keyboard-response","134","375436","0.0-2.0-6.0-3.0-1.0","10","1","2022-04-01 06:16:36","c79472ad15d8b617a4d57d5bf56a810f","101.186.6.238","Mozilla/5.0 (Windows NT 10.0; Win64; x64) AppleWebKit/537.36 (KHTML, like Gecko) Chrome/99.0.4844.84 Safari/537.36","WebKit","Chrome","99.0.4844.84","Windows","10.0","null","null","","","<div class=""grey"">
                <div class=""centered"">
                    <p style=""font-size: 24px""><b>???</b></p>
                </div>","O_2_4_O",""
"","","","","","html-keyboard-response","135","377517","0.0-2.0-6.0-4.0-0.0","10","1","2022-04-01 06:16:36","c79472ad15d8b617a4d57d5bf56a810f","101.186.6.238","Mozilla/5.0 (Windows NT 10.0; Win64; x64) AppleWebKit/537.36 (KHTML, like Gecko) Chrome/99.0.4844.84 Safari/537.36","WebKit","Chrome","99.0.4844.84","Windows","10.0","2076.2000000476837","f","","","
                      <div class=""row"">

                          <div class=""column"">
                              <div class=""orange""></div>
                              <div class=""leftChoiceText"">
                                  <p style=""font-size: 32px""><b>F</b></p>
                              </div>
                          </div>

                          <div class=""column"">
                              <div class=""pink""></div>
                              <div class=""rightChoiceText"">
                                  <p style=""font-size: 32px""><b>J</b></p>
                              </div>
                          </div>

                      </div>

                      <div class=""centeredTop"">
                          Which colour do you<br>
                          predict will win?
                      </div>","O_2_4_O",""
"","","","","","html-keyboard-response","136","379020","0.0-2.0-6.0-4.0-1.0","10","1","2022-04-01 06:16:36","c79472ad15d8b617a4d57d5bf56a810f","101.186.6.238","Mozilla/5.0 (Windows NT 10.0; Win64; x64) AppleWebKit/537.36 (KHTML, like Gecko) Chrome/99.0.4844.84 Safari/537.36","WebKit","Chrome","99.0.4844.84","Windows","10.0","null","null","","","<p style=""font-size:64px;"">+</p>","O_2_4_O",""
"","","","","","html-keyboard-response","137","379424","0.0-2.0-7.0-0.0-0.0","10","1","2022-04-01 06:16:36","c79472ad15d8b617a4d57d5bf56a810f","101.186.6.238","Mozilla/5.0 (Windows NT 10.0; Win64; x64) AppleWebKit/537.36 (KHTML, like Gecko) Chrome/99.0.4844.84 Safari/537.36","WebKit","Chrome","99.0.4844.84","Windows","10.0","null","null","","","<p style=""font-size:64px;"">+</p>","O_2_4_P",""
"","","","","","html-keyboard-response","138","380677","0.0-2.0-7.0-0.0-1.0","10","1","2022-04-01 06:16:36","c79472ad15d8b617a4d57d5bf56a810f","101.186.6.238","Mozilla/5.0 (Windows NT 10.0; Win64; x64) AppleWebKit/537.36 (KHTML, like Gecko) Chrome/99.0.4844.84 Safari/537.36","WebKit","Chrome","99.0.4844.84","Windows","10.0","null","null","","","
                        <div class=pink>
                        <div class=""centered"">
                            <p style=""font-size: 24px""><b>55%</b></p>
                        </div>","O_2_4_P",""
"","","","","","html-keyboard-response","139","381078","0.0-2.0-7.0-0.0-0.1","10","1","2022-04-01 06:16:36","c79472ad15d8b617a4d57d5bf56a810f","101.186.6.238","Mozilla/5.0 (Windows NT 10.0; Win64; x64) AppleWebKit/537.36 (KHTML, like Gecko) Chrome/99.0.4844.84 Safari/537.36","WebKit","Chrome","99.0.4844.84","Windows","10.0","null","null","","","<p style=""font-size:64px;"">+</p>","O_2_4_P",""
"","","","","","html-keyboard-response","140","382331","0.0-2.0-7.0-0.0-1.1","10","1","2022-04-01 06:16:36","c79472ad15d8b617a4d57d5bf56a810f","101.186.6.238","Mozilla/5.0 (Windows NT 10.0; Win64; x64) AppleWebKit/537.36 (KHTML, like Gecko) Chrome/99.0.4844.84 Safari/537.36","WebKit","Chrome","99.0.4844.84","Windows","10.0","null","null","","","
                        <div class=orange>
                        <div class=""centered"">
                            <p style=""font-size: 24px""><b>55%</b></p>
                        </div>","O_2_4_P",""
"","","","","","html-keyboard-response","141","382741","0.0-2.0-7.0-0.0-0.2","10","1","2022-04-01 06:16:36","c79472ad15d8b617a4d57d5bf56a810f","101.186.6.238","Mozilla/5.0 (Windows NT 10.0; Win64; x64) AppleWebKit/537.36 (KHTML, like Gecko) Chrome/99.0.4844.84 Safari/537.36","WebKit","Chrome","99.0.4844.84","Windows","10.0","null","null","","","<p style=""font-size:64px;"">+</p>","O_2_4_P",""
"","","","","","html-keyboard-response","142","383995","0.0-2.0-7.0-0.0-1.2","10","1","2022-04-01 06:16:36","c79472ad15d8b617a4d57d5bf56a810f","101.186.6.238","Mozilla/5.0 (Windows NT 10.0; Win64; x64) AppleWebKit/537.36 (KHTML, like Gecko) Chrome/99.0.4844.84 Safari/537.36","WebKit","Chrome","99.0.4844.84","Windows","10.0","null","null","","","
                        <div class=pink>
                        <div class=""centered"">
                            <p style=""font-size: 24px""><b>52%</b></p>
                        </div>","O_2_4_P",""
"","","","","","html-keyboard-response","143","384399","0.0-2.0-7.0-0.0-0.3","10","1","2022-04-01 06:16:36","c79472ad15d8b617a4d57d5bf56a810f","101.186.6.238","Mozilla/5.0 (Windows NT 10.0; Win64; x64) AppleWebKit/537.36 (KHTML, like Gecko) Chrome/99.0.4844.84 Safari/537.36","WebKit","Chrome","99.0.4844.84","Windows","10.0","null","null","","","<p style=""font-size:64px;"">+</p>","O_2_4_P",""
"","","","","","html-keyboard-response","144","385653","0.0-2.0-7.0-0.0-1.3","10","1","2022-04-01 06:16:36","c79472ad15d8b617a4d57d5bf56a810f","101.186.6.238","Mozilla/5.0 (Windows NT 10.0; Win64; x64) AppleWebKit/537.36 (KHTML, like Gecko) Chrome/99.0.4844.84 Safari/537.36","WebKit","Chrome","99.0.4844.84","Windows","10.0","null","null","","","
                        <div class=orange>
                        <div class=""centered"">
                            <p style=""font-size: 24px""><b>54%</b></p>
                        </div>","O_2_4_P",""
"","","","","","html-keyboard-response","145","386059","0.0-2.0-7.0-0.0-0.4","10","1","2022-04-01 06:16:36","c79472ad15d8b617a4d57d5bf56a810f","101.186.6.238","Mozilla/5.0 (Windows NT 10.0; Win64; x64) AppleWebKit/537.36 (KHTML, like Gecko) Chrome/99.0.4844.84 Safari/537.36","WebKit","Chrome","99.0.4844.84","Windows","10.0","null","null","","","<p style=""font-size:64px;"">+</p>","O_2_4_P",""
"","","","","","html-keyboard-response","146","387312","0.0-2.0-7.0-0.0-1.4","10","1","2022-04-01 06:16:36","c79472ad15d8b617a4d57d5bf56a810f","101.186.6.238","Mozilla/5.0 (Windows NT 10.0; Win64; x64) AppleWebKit/537.36 (KHTML, like Gecko) Chrome/99.0.4844.84 Safari/537.36","WebKit","Chrome","99.0.4844.84","Windows","10.0","null","null","","","
                        <div class=orange>
                        <div class=""centered"">
                            <p style=""font-size: 24px""><b>52%</b></p>
                        </div>","O_2_4_P",""
"","","","","","html-keyboard-response","147","387714","0.0-2.0-7.0-0.0-0.5","10","1","2022-04-01 06:16:36","c79472ad15d8b617a4d57d5bf56a810f","101.186.6.238","Mozilla/5.0 (Windows NT 10.0; Win64; x64) AppleWebKit/537.36 (KHTML, like Gecko) Chrome/99.0.4844.84 Safari/537.36","WebKit","Chrome","99.0.4844.84","Windows","10.0","null","null","","","<p style=""font-size:64px;"">+</p>","O_2_4_P",""
"","","","","","html-keyboard-response","148","388968","0.0-2.0-7.0-0.0-1.5","10","1","2022-04-01 06:16:36","c79472ad15d8b617a4d57d5bf56a810f","101.186.6.238","Mozilla/5.0 (Windows NT 10.0; Win64; x64) AppleWebKit/537.36 (KHTML, like Gecko) Chrome/99.0.4844.84 Safari/537.36","WebKit","Chrome","99.0.4844.84","Windows","10.0","null","null","","","
                        <div class=pink>
                        <div class=""centered"">
                            <p style=""font-size: 24px""><b>52%</b></p>
                        </div>","O_2_4_P",""
"","","","","","html-keyboard-response","149","389371","0.0-2.0-7.0-1.0-0.0","10","1","2022-04-01 06:16:36","c79472ad15d8b617a4d57d5bf56a810f","101.186.6.238","Mozilla/5.0 (Windows NT 10.0; Win64; x64) AppleWebKit/537.36 (KHTML, like Gecko) Chrome/99.0.4844.84 Safari/537.36","WebKit","Chrome","99.0.4844.84","Windows","10.0","null","null","","","<p style=""font-size:64px;"">+</p>","O_2_4_P",""
"","","","","","html-keyboard-response","150","390625","0.0-2.0-7.0-1.0-1.0","10","1","2022-04-01 06:16:36","c79472ad15d8b617a4d57d5bf56a810f","101.186.6.238","Mozilla/5.0 (Windows NT 10.0; Win64; x64) AppleWebKit/537.36 (KHTML, like Gecko) Chrome/99.0.4844.84 Safari/537.36","WebKit","Chrome","99.0.4844.84","Windows","10.0","null","null","","","
                        <div class=""pink"">
                        <div class=""centered"">
                            <p style=""font-size: 24px""><b>50%</b></p>
                        </div>","O_2_4_P",""
"","","","","","html-slider-response","151","395854","0.0-2.0-7.0-2.0","10","1","2022-04-01 06:16:36","c79472ad15d8b617a4d57d5bf56a810f","101.186.6.238","Mozilla/5.0 (Windows NT 10.0; Win64; x64) AppleWebKit/537.36 (KHTML, like Gecko) Chrome/99.0.4844.84 Safari/537.36","WebKit","Chrome","99.0.4844.84","Windows","10.0","5225.900000095367","42","","","<div style=""width: 500px; height: 100px;""><p>Place your bid for more information.</p></div>","infoBid","10"
"","","","","","html-keyboard-response","152","396259","0.0-2.0-7.0-3.0-0.0","10","1","2022-04-01 06:16:36","c79472ad15d8b617a4d57d5bf56a810f","101.186.6.238","Mozilla/5.0 (Windows NT 10.0; Win64; x64) AppleWebKit/537.36 (KHTML, like Gecko) Chrome/99.0.4844.84 Safari/537.36","WebKit","Chrome","99.0.4844.84","Windows","10.0","null","null","","","<p style=""font-size:64px;"">+</p>","O_2_4_P",""
"","","","","","html-keyboard-response","153","397514","0.0-2.0-7.0-3.0-1.0","10","1","2022-04-01 06:16:36","c79472ad15d8b617a4d57d5bf56a810f","101.186.6.238","Mozilla/5.0 (Windows NT 10.0; Win64; x64) AppleWebKit/537.36 (KHTML, like Gecko) Chrome/99.0.4844.84 Safari/537.36","WebKit","Chrome","99.0.4844.84","Windows","10.0","null","null","","","<div class=pink>
                <div class=""centered"">
                    <p style=""font-size: 24px""><b>52%</b></p>
                </div>","O_2_4_P",""
"","","","","","html-keyboard-response","154","398243","0.0-2.0-7.0-4.0-0.0","10","1","2022-04-01 06:16:36","c79472ad15d8b617a4d57d5bf56a810f","101.186.6.238","Mozilla/5.0 (Windows NT 10.0; Win64; x64) AppleWebKit/537.36 (KHTML, like Gecko) Chrome/99.0.4844.84 Safari/537.36","WebKit","Chrome","99.0.4844.84","Windows","10.0","725.4000000953674","j","","","
                      <div class=""row"">

                          <div class=""column"">
                              <div class=""orange""></div>
                              <div class=""leftChoiceText"">
                                  <p style=""font-size: 32px""><b>F</b></p>
                              </div>
                          </div>

                          <div class=""column"">
                              <div class=""pink""></div>
                              <div class=""rightChoiceText"">
                                  <p style=""font-size: 32px""><b>J</b></p>
                              </div>
                          </div>

                      </div>

                      <div class=""centeredTop"">
                          Which colour do you<br>
                          predict will win?
                      </div>","O_2_4_P",""
"","","","","","html-keyboard-response","155","399747","0.0-2.0-7.0-4.0-1.0","10","1","2022-04-01 06:16:36","c79472ad15d8b617a4d57d5bf56a810f","101.186.6.238","Mozilla/5.0 (Windows NT 10.0; Win64; x64) AppleWebKit/537.36 (KHTML, like Gecko) Chrome/99.0.4844.84 Safari/537.36","WebKit","Chrome","99.0.4844.84","Windows","10.0","null","null","","","<p style=""font-size:64px;"">+</p>","O_2_4_P",""
"","","","","","html-keyboard-response","156","401547","0.0-2.0-8.0","10","1","2022-04-01 06:16:36","c79472ad15d8b617a4d57d5bf56a810f","101.186.6.238","Mozilla/5.0 (Windows NT 10.0; Win64; x64) AppleWebKit/537.36 (KHTML, like Gecko) Chrome/99.0.4844.84 Safari/537.36","WebKit","Chrome","99.0.4844.84","Windows","10.0","1796.4000000953674"," ","","","This is the end of the practice trials.<br><br>
        Press spacebar to begin the experiment.","",""
"","","","","","html-keyboard-response","157","401951","0.0-2.0-9.0-0.0-0.0","10","1","2022-04-01 06:16:36","c79472ad15d8b617a4d57d5bf56a810f","101.186.6.238","Mozilla/5.0 (Windows NT 10.0; Win64; x64) AppleWebKit/537.36 (KHTML, like Gecko) Chrome/99.0.4844.84 Safari/537.36","WebKit","Chrome","99.0.4844.84","Windows","10.0","null","null","","","<p style=""font-size:64px;"">+</p>","P_2_6_P",""
"","","","","","html-keyboard-response","158","403205","0.0-2.0-9.0-0.0-1.0","10","1","2022-04-01 06:16:36","c79472ad15d8b617a4d57d5bf56a810f","101.186.6.238","Mozilla/5.0 (Windows NT 10.0; Win64; x64) AppleWebKit/537.36 (KHTML, like Gecko) Chrome/99.0.4844.84 Safari/537.36","WebKit","Chrome","99.0.4844.84","Windows","10.0","null","null","","","
                        <div class=orange>
                        <div class=""centered"">
                            <p style=""font-size: 24px""><b>52%</b></p>
                        </div>","P_2_6_P",""
"","","","","","html-keyboard-response","159","403608","0.0-2.0-9.0-0.0-0.1","10","1","2022-04-01 06:16:36","c79472ad15d8b617a4d57d5bf56a810f","101.186.6.238","Mozilla/5.0 (Windows NT 10.0; Win64; x64) AppleWebKit/537.36 (KHTML, like Gecko) Chrome/99.0.4844.84 Safari/537.36","WebKit","Chrome","99.0.4844.84","Windows","10.0","null","null","","","<p style=""font-size:64px;"">+</p>","P_2_6_P",""
"","","","","","html-keyboard-response","160","404862","0.0-2.0-9.0-0.0-1.1","10","1","2022-04-01 06:16:36","c79472ad15d8b617a4d57d5bf56a810f","101.186.6.238","Mozilla/5.0 (Windows NT 10.0; Win64; x64) AppleWebKit/537.36 (KHTML, like Gecko) Chrome/99.0.4844.84 Safari/537.36","WebKit","Chrome","99.0.4844.84","Windows","10.0","null","null","","","
                        <div class=orange>
                        <div class=""centered"">
                            <p style=""font-size: 24px""><b>54%</b></p>
                        </div>","P_2_6_P",""
"","","","","","html-keyboard-response","161","405280","0.0-2.0-9.0-0.0-0.2","10","1","2022-04-01 06:16:36","c79472ad15d8b617a4d57d5bf56a810f","101.186.6.238","Mozilla/5.0 (Windows NT 10.0; Win64; x64) AppleWebKit/537.36 (KHTML, like Gecko) Chrome/99.0.4844.84 Safari/537.36","WebKit","Chrome","99.0.4844.84","Windows","10.0","null","null","","","<p style=""font-size:64px;"">+</p>","P_2_6_P",""
"","","","","","html-keyboard-response","162","406533","0.0-2.0-9.0-0.0-1.2","10","1","2022-04-01 06:16:36","c79472ad15d8b617a4d57d5bf56a810f","101.186.6.238","Mozilla/5.0 (Windows NT 10.0; Win64; x64) AppleWebKit/537.36 (KHTML, like Gecko) Chrome/99.0.4844.84 Safari/537.36","WebKit","Chrome","99.0.4844.84","Windows","10.0","null","null","","","
                        <div class=pink>
                        <div class=""centered"">
                            <p style=""font-size: 24px""><b>51%</b></p>
                        </div>","P_2_6_P",""
"","","","","","html-keyboard-response","163","406936","0.0-2.0-9.0-0.0-0.3","10","1","2022-04-01 06:16:36","c79472ad15d8b617a4d57d5bf56a810f","101.186.6.238","Mozilla/5.0 (Windows NT 10.0; Win64; x64) AppleWebKit/537.36 (KHTML, like Gecko) Chrome/99.0.4844.84 Safari/537.36","WebKit","Chrome","99.0.4844.84","Windows","10.0","null","null","","","<p style=""font-size:64px;"">+</p>","P_2_6_P",""
"","","","","","html-keyboard-response","164","408190","0.0-2.0-9.0-0.0-1.3","10","1","2022-04-01 06:16:36","c79472ad15d8b617a4d57d5bf56a810f","101.186.6.238","Mozilla/5.0 (Windows NT 10.0; Win64; x64) AppleWebKit/537.36 (KHTML, like Gecko) Chrome/99.0.4844.84 Safari/537.36","WebKit","Chrome","99.0.4844.84","Windows","10.0","null","null","","","
                        <div class=pink>
                        <div class=""centered"">
                            <p style=""font-size: 24px""><b>55%</b></p>
                        </div>","P_2_6_P",""
"","","","","","html-keyboard-response","165","408594","0.0-2.0-9.0-0.0-0.4","10","1","2022-04-01 06:16:36","c79472ad15d8b617a4d57d5bf56a810f","101.186.6.238","Mozilla/5.0 (Windows NT 10.0; Win64; x64) AppleWebKit/537.36 (KHTML, like Gecko) Chrome/99.0.4844.84 Safari/537.36","WebKit","Chrome","99.0.4844.84","Windows","10.0","null","null","","","<p style=""font-size:64px;"">+</p>","P_2_6_P",""
"","","","","","html-keyboard-response","166","409848","0.0-2.0-9.0-0.0-1.4","10","1","2022-04-01 06:16:36","c79472ad15d8b617a4d57d5bf56a810f","101.186.6.238","Mozilla/5.0 (Windows NT 10.0; Win64; x64) AppleWebKit/537.36 (KHTML, like Gecko) Chrome/99.0.4844.84 Safari/537.36","WebKit","Chrome","99.0.4844.84","Windows","10.0","null","null","","","
                        <div class=pink>
                        <div class=""centered"">
                            <p style=""font-size: 24px""><b>55%</b></p>
                        </div>","P_2_6_P",""
"","","","","","html-keyboard-response","167","410253","0.0-2.0-9.0-0.0-0.5","10","1","2022-04-01 06:16:36","c79472ad15d8b617a4d57d5bf56a810f","101.186.6.238","Mozilla/5.0 (Windows NT 10.0; Win64; x64) AppleWebKit/537.36 (KHTML, like Gecko) Chrome/99.0.4844.84 Safari/537.36","WebKit","Chrome","99.0.4844.84","Windows","10.0","null","null","","","<p style=""font-size:64px;"">+</p>","P_2_6_P",""
"","","","","","html-keyboard-response","168","411507","0.0-2.0-9.0-0.0-1.5","10","1","2022-04-01 06:16:36","c79472ad15d8b617a4d57d5bf56a810f","101.186.6.238","Mozilla/5.0 (Windows NT 10.0; Win64; x64) AppleWebKit/537.36 (KHTML, like Gecko) Chrome/99.0.4844.84 Safari/537.36","WebKit","Chrome","99.0.4844.84","Windows","10.0","null","null","","","
                        <div class=orange>
                        <div class=""centered"">
                            <p style=""font-size: 24px""><b>53%</b></p>
                        </div>","P_2_6_P",""
"","","","","","html-keyboard-response","169","411911","0.0-2.0-9.0-1.0-0.0","10","1","2022-04-01 06:16:36","c79472ad15d8b617a4d57d5bf56a810f","101.186.6.238","Mozilla/5.0 (Windows NT 10.0; Win64; x64) AppleWebKit/537.36 (KHTML, like Gecko) Chrome/99.0.4844.84 Safari/537.36","WebKit","Chrome","99.0.4844.84","Windows","10.0","null","null","","","<p style=""font-size:64px;"">+</p>","P_2_6_P",""
"","","","","","html-keyboard-response","170","413166","0.0-2.0-9.0-1.0-1.0","10","1","2022-04-01 06:16:36","c79472ad15d8b617a4d57d5bf56a810f","101.186.6.238","Mozilla/5.0 (Windows NT 10.0; Win64; x64) AppleWebKit/537.36 (KHTML, like Gecko) Chrome/99.0.4844.84 Safari/537.36","WebKit","Chrome","99.0.4844.84","Windows","10.0","null","null","","","
                        <div class=""pink"">
                        <div class=""centered"">
                            <p style=""font-size: 24px""><b>50%</b></p>
                        </div>","P_2_6_P",""
"","","","","","html-slider-response","171","417056","0.0-2.0-9.0-2.0","10","1","2022-04-01 06:16:36","c79472ad15d8b617a4d57d5bf56a810f","101.186.6.238","Mozilla/5.0 (Windows NT 10.0; Win64; x64) AppleWebKit/537.36 (KHTML, like Gecko) Chrome/99.0.4844.84 Safari/537.36","WebKit","Chrome","99.0.4844.84","Windows","10.0","3887.100000143051","25","","","<div style=""width: 500px; height: 100px;""><p>Place your bid for more information.</p></div>","infoBid","47"
"","","","","","html-keyboard-response","172","417461","0.0-2.0-9.0-3.0-0.0","10","1","2022-04-01 06:16:36","c79472ad15d8b617a4d57d5bf56a810f","101.186.6.238","Mozilla/5.0 (Windows NT 10.0; Win64; x64) AppleWebKit/537.36 (KHTML, like Gecko) Chrome/99.0.4844.84 Safari/537.36","WebKit","Chrome","99.0.4844.84","Windows","10.0","null","null","","","<p style=""font-size:64px;"">+</p>","P_2_6_P",""
"","","","","","html-keyboard-response","173","418714","0.0-2.0-9.0-3.0-1.0","10","1","2022-04-01 06:16:36","c79472ad15d8b617a4d57d5bf56a810f","101.186.6.238","Mozilla/5.0 (Windows NT 10.0; Win64; x64) AppleWebKit/537.36 (KHTML, like Gecko) Chrome/99.0.4844.84 Safari/537.36","WebKit","Chrome","99.0.4844.84","Windows","10.0","null","null","","","<div class=""grey"">
                <div class=""centered"">
                    <p style=""font-size: 24px""><b>???</b></p>
                </div>","P_2_6_P",""
"","","","","","html-keyboard-response","174","419486","0.0-2.0-9.0-4.0-0.0","10","1","2022-04-01 06:16:36","c79472ad15d8b617a4d57d5bf56a810f","101.186.6.238","Mozilla/5.0 (Windows NT 10.0; Win64; x64) AppleWebKit/537.36 (KHTML, like Gecko) Chrome/99.0.4844.84 Safari/537.36","WebKit","Chrome","99.0.4844.84","Windows","10.0","767.7000000476837","j","","","
                      <div class=""row"">

                          <div class=""column"">
                              <div class=""orange""></div>
                              <div class=""leftChoiceText"">
                                  <p style=""font-size: 32px""><b>F</b></p>
                              </div>
                          </div>

                          <div class=""column"">
                              <div class=""pink""></div>
                              <div class=""rightChoiceText"">
                                  <p style=""font-size: 32px""><b>J</b></p>
                              </div>
                          </div>

                      </div>

                      <div class=""centeredTop"">
                          Which colour do you<br>
                          predict will win?
                      </div>","P_2_6_P",""
"","","","","","html-keyboard-response","175","420990","0.0-2.0-9.0-4.0-1.0","10","1","2022-04-01 06:16:36","c79472ad15d8b617a4d57d5bf56a810f","101.186.6.238","Mozilla/5.0 (Windows NT 10.0; Win64; x64) AppleWebKit/537.36 (KHTML, like Gecko) Chrome/99.0.4844.84 Safari/537.36","WebKit","Chrome","99.0.4844.84","Windows","10.0","null","null","","","<p style=""font-size:64px;"">+</p>","P_2_6_P",""
"","","","","","html-keyboard-response","176","421393","0.0-2.0-10.0-0.0-0.0","10","1","2022-04-01 06:16:36","c79472ad15d8b617a4d57d5bf56a810f","101.186.6.238","Mozilla/5.0 (Windows NT 10.0; Win64; x64) AppleWebKit/537.36 (KHTML, like Gecko) Chrome/99.0.4844.84 Safari/537.36","WebKit","Chrome","99.0.4844.84","Windows","10.0","null","null","","","<p style=""font-size:64px;"">+</p>","Z_3_O",""
"","","","","","html-keyboard-response","177","422648","0.0-2.0-10.0-0.0-1.0","10","1","2022-04-01 06:16:36","c79472ad15d8b617a4d57d5bf56a810f","101.186.6.238","Mozilla/5.0 (Windows NT 10.0; Win64; x64) AppleWebKit/537.36 (KHTML, like Gecko) Chrome/99.0.4844.84 Safari/537.36","WebKit","Chrome","99.0.4844.84","Windows","10.0","null","null","","","
                        <div class=pink>
                        <div class=""centered"">
                            <p style=""font-size: 24px""><b>53%</b></p>
                        </div>","Z_3_O",""
"","","","","","html-keyboard-response","178","423052","0.0-2.0-10.0-0.0-0.1","10","1","2022-04-01 06:16:36","c79472ad15d8b617a4d57d5bf56a810f","101.186.6.238","Mozilla/5.0 (Windows NT 10.0; Win64; x64) AppleWebKit/537.36 (KHTML, like Gecko) Chrome/99.0.4844.84 Safari/537.36","WebKit","Chrome","99.0.4844.84","Windows","10.0","null","null","","","<p style=""font-size:64px;"">+</p>","Z_3_O",""
"","","","","","html-keyboard-response","179","424306","0.0-2.0-10.0-0.0-1.1","10","1","2022-04-01 06:16:36","c79472ad15d8b617a4d57d5bf56a810f","101.186.6.238","Mozilla/5.0 (Windows NT 10.0; Win64; x64) AppleWebKit/537.36 (KHTML, like Gecko) Chrome/99.0.4844.84 Safari/537.36","WebKit","Chrome","99.0.4844.84","Windows","10.0","null","null","","","
                        <div class=orange>
                        <div class=""centered"">
                            <p style=""font-size: 24px""><b>52%</b></p>
                        </div>","Z_3_O",""
"","","","","","html-keyboard-response","180","424709","0.0-2.0-10.0-0.0-0.2","10","1","2022-04-01 06:16:36","c79472ad15d8b617a4d57d5bf56a810f","101.186.6.238","Mozilla/5.0 (Windows NT 10.0; Win64; x64) AppleWebKit/537.36 (KHTML, like Gecko) Chrome/99.0.4844.84 Safari/537.36","WebKit","Chrome","99.0.4844.84","Windows","10.0","null","null","","","<p style=""font-size:64px;"">+</p>","Z_3_O",""
"","","","","","html-keyboard-response","181","425965","0.0-2.0-10.0-0.0-1.2","10","1","2022-04-01 06:16:36","c79472ad15d8b617a4d57d5bf56a810f","101.186.6.238","Mozilla/5.0 (Windows NT 10.0; Win64; x64) AppleWebKit/537.36 (KHTML, like Gecko) Chrome/99.0.4844.84 Safari/537.36","WebKit","Chrome","99.0.4844.84","Windows","10.0","null","null","","","
                        <div class=orange>
                        <div class=""centered"">
                            <p style=""font-size: 24px""><b>53%</b></p>
                        </div>","Z_3_O",""
"","","","","","html-keyboard-response","182","426385","0.0-2.0-10.0-0.0-0.3","10","1","2022-04-01 06:16:36","c79472ad15d8b617a4d57d5bf56a810f","101.186.6.238","Mozilla/5.0 (Windows NT 10.0; Win64; x64) AppleWebKit/537.36 (KHTML, like Gecko) Chrome/99.0.4844.84 Safari/537.36","WebKit","Chrome","99.0.4844.84","Windows","10.0","null","null","","","<p style=""font-size:64px;"">+</p>","Z_3_O",""
"","","","","","html-keyboard-response","183","427640","0.0-2.0-10.0-0.0-1.3","10","1","2022-04-01 06:16:36","c79472ad15d8b617a4d57d5bf56a810f","101.186.6.238","Mozilla/5.0 (Windows NT 10.0; Win64; x64) AppleWebKit/537.36 (KHTML, like Gecko) Chrome/99.0.4844.84 Safari/537.36","WebKit","Chrome","99.0.4844.84","Windows","10.0","null","null","","","
                        <div class=pink>
                        <div class=""centered"">
                            <p style=""font-size: 24px""><b>51%</b></p>
                        </div>","Z_3_O",""
"","","","","","html-keyboard-response","184","428045","0.0-2.0-10.0-0.0-0.4","10","1","2022-04-01 06:16:36","c79472ad15d8b617a4d57d5bf56a810f","101.186.6.238","Mozilla/5.0 (Windows NT 10.0; Win64; x64) AppleWebKit/537.36 (KHTML, like Gecko) Chrome/99.0.4844.84 Safari/537.36","WebKit","Chrome","99.0.4844.84","Windows","10.0","null","null","","","<p style=""font-size:64px;"">+</p>","Z_3_O",""
"","","","","","html-keyboard-response","185","429300","0.0-2.0-10.0-0.0-1.4","10","1","2022-04-01 06:16:36","c79472ad15d8b617a4d57d5bf56a810f","101.186.6.238","Mozilla/5.0 (Windows NT 10.0; Win64; x64) AppleWebKit/537.36 (KHTML, like Gecko) Chrome/99.0.4844.84 Safari/537.36","WebKit","Chrome","99.0.4844.84","Windows","10.0","null","null","","","
                        <div class=orange>
                        <div class=""centered"">
                            <p style=""font-size: 24px""><b>52%</b></p>
                        </div>","Z_3_O",""
"","","","","","html-keyboard-response","186","429704","0.0-2.0-10.0-0.0-0.5","10","1","2022-04-01 06:16:36","c79472ad15d8b617a4d57d5bf56a810f","101.186.6.238","Mozilla/5.0 (Windows NT 10.0; Win64; x64) AppleWebKit/537.36 (KHTML, like Gecko) Chrome/99.0.4844.84 Safari/537.36","WebKit","Chrome","99.0.4844.84","Windows","10.0","null","null","","","<p style=""font-size:64px;"">+</p>","Z_3_O",""
"","","","","","html-keyboard-response","187","430960","0.0-2.0-10.0-0.0-1.5","10","1","2022-04-01 06:16:36","c79472ad15d8b617a4d57d5bf56a810f","101.186.6.238","Mozilla/5.0 (Windows NT 10.0; Win64; x64) AppleWebKit/537.36 (KHTML, like Gecko) Chrome/99.0.4844.84 Safari/537.36","WebKit","Chrome","99.0.4844.84","Windows","10.0","null","null","","","
                        <div class=pink>
                        <div class=""centered"">
                            <p style=""font-size: 24px""><b>53%</b></p>
                        </div>","Z_3_O",""
"","","","","","html-keyboard-response","188","431364","0.0-2.0-10.0-1.0-0.0","10","1","2022-04-01 06:16:36","c79472ad15d8b617a4d57d5bf56a810f","101.186.6.238","Mozilla/5.0 (Windows NT 10.0; Win64; x64) AppleWebKit/537.36 (KHTML, like Gecko) Chrome/99.0.4844.84 Safari/537.36","WebKit","Chrome","99.0.4844.84","Windows","10.0","null","null","","","<p style=""font-size:64px;"">+</p>","Z_3_O",""
"","","","","","html-keyboard-response","189","432617","0.0-2.0-10.0-1.0-1.0","10","1","2022-04-01 06:16:36","c79472ad15d8b617a4d57d5bf56a810f","101.186.6.238","Mozilla/5.0 (Windows NT 10.0; Win64; x64) AppleWebKit/537.36 (KHTML, like Gecko) Chrome/99.0.4844.84 Safari/537.36","WebKit","Chrome","99.0.4844.84","Windows","10.0","null","null","","","
                        <div class=""orange"">
                        <div class=""centered"">
                            <p style=""font-size: 24px""><b>50%</b></p>
                        </div>","Z_3_O",""
"","","","","","html-slider-response","190","434605","0.0-2.0-10.0-2.0","10","1","2022-04-01 06:16:36","c79472ad15d8b617a4d57d5bf56a810f","101.186.6.238","Mozilla/5.0 (Windows NT 10.0; Win64; x64) AppleWebKit/537.36 (KHTML, like Gecko) Chrome/99.0.4844.84 Safari/537.36","WebKit","Chrome","99.0.4844.84","Windows","10.0","1984.3999998569489","32","","","<div style=""width: 500px; height: 100px;""><p>Place your bid for more information.</p></div>","infoBid","38"
"","","","","","html-keyboard-response","191","435010","0.0-2.0-10.0-3.0-0.0","10","1","2022-04-01 06:16:36","c79472ad15d8b617a4d57d5bf56a810f","101.186.6.238","Mozilla/5.0 (Windows NT 10.0; Win64; x64) AppleWebKit/537.36 (KHTML, like Gecko) Chrome/99.0.4844.84 Safari/537.36","WebKit","Chrome","99.0.4844.84","Windows","10.0","null","null","","","<p style=""font-size:64px;"">+</p>","Z_3_O",""
"","","","","","html-keyboard-response","192","436263","0.0-2.0-10.0-3.0-1.0","10","1","2022-04-01 06:16:36","c79472ad15d8b617a4d57d5bf56a810f","101.186.6.238","Mozilla/5.0 (Windows NT 10.0; Win64; x64) AppleWebKit/537.36 (KHTML, like Gecko) Chrome/99.0.4844.84 Safari/537.36","WebKit","Chrome","99.0.4844.84","Windows","10.0","null","null","","","<div class=pink>
                <div class=""centered"">
                    <p style=""font-size: 24px""><b>53%</b></p>
                </div>","Z_3_O",""
"","","","","","html-keyboard-response","193","436937","0.0-2.0-10.0-4.0-0.0","10","1","2022-04-01 06:16:36","c79472ad15d8b617a4d57d5bf56a810f","101.186.6.238","Mozilla/5.0 (Windows NT 10.0; Win64; x64) AppleWebKit/537.36 (KHTML, like Gecko) Chrome/99.0.4844.84 Safari/537.36","WebKit","Chrome","99.0.4844.84","Windows","10.0","668.7999999523163","j","","","
                      <div class=""row"">

                          <div class=""column"">
                              <div class=""orange""></div>
                              <div class=""leftChoiceText"">
                                  <p style=""font-size: 32px""><b>F</b></p>
                              </div>
                          </div>

                          <div class=""column"">
                              <div class=""pink""></div>
                              <div class=""rightChoiceText"">
                                  <p style=""font-size: 32px""><b>J</b></p>
                              </div>
                          </div>

                      </div>

                      <div class=""centeredTop"">
                          Which colour do you<br>
                          predict will win?
                      </div>","Z_3_O",""
